STUDYID,SITEID,USUBJID,TRTA,TRTAN,AGE,AGEGR1,AGEGR1N,RACE,RACEN,SEX,SAFFL,TRTSDT,TRTEDT,ASTDT,ASTDTF,ASTDY,AENDT,AENDY,ADURN,ADURU,AETERM,AELLT,AELLTCD,AEDECOD,AEPTCD,AEHLT,AEHLTCD,AEHLGT,AEHLGTCD,AEBODSYS,AESOC,AESOCCD,AESEV,AESER,AESCAN,AESCONG,AESDISAB,AESDTH,AESHOSP,AESLIFE,AESOD,AEREL,AEACN,AEOUT,AESEQ,TRTEMFL,AOCCFL,AOCCSFL,AOCCPFL,AOCC02FL,AOCC03FL,AOCC04FL,CQ01NAM,AOCC01FL
CDISCPILOT01,701,01-701-1015,Placebo,0.0,63.0,<65,1.0,WHITE,1.0,F,Y,2014-01-02,2014-07-02,2014-01-03,,2.0,,,,,APPLICATION SITE ERYTHEMA,APPLICATION SITE REDNESS,,APPLICATION SITE ERYTHEMA,,HLT_0617,,HLGT_0152,,GENERAL DISORDERS AND ADMINISTRATION SITE CONDITIONS,GENERAL DISORDERS AND ADMINISTRATION SITE CONDITIONS,,MILD,N,N,N,N,N,N,N,N,PROBABLE,,NOT RECOVERED/NOT RESOLVED,1.0,Y,Y,Y,Y,,,,DERMATOLOGIC EVENTS,Y
CDISCPILOT01,701,01-701-1015,Placebo,0.0,63.0,<65,1.0,WHITE,1.0,F,Y,2014-01-02,2014-07-02,2014-01-03,,2.0,,,,,APPLICATION SITE PRURITUS,APPLICATION SITE ITCHING,,APPLICATION SITE PRURITUS,,HLT_0317,,HLGT_0338,,GENERAL DISORDERS AND ADMINISTRATION SITE CONDITIONS,GENERAL DISORDERS AND ADMINISTRATION SITE CONDITIONS,,MILD,N,N,N,N,N,N,N,N,PROBABLE,,NOT RECOVERED/NOT RESOLVED,2.0,Y,,,Y,,,,DERMATOLOGIC EVENTS,
CDISCPILOT01,701,01-701-1015,Placebo,0.0,63.0,<65,1.0,WHITE,1.0,F,Y,2014-01-02,2014-07-02,2014-01-09,,8.0,2014-01-11,10.0,3.0,DAY,DIARRHOEA,DIARRHEA,,DIARRHOEA,,HLT_0148,,HLGT_0588,,GASTROINTESTINAL DISORDERS,GASTROINTESTINAL DISORDERS,,MILD,N,N,N,N,N,N,N,N,REMOTE,,RECOVERED/RESOLVED,3.0,Y,,Y,Y,,,,,
CDISCPILOT01,701,01-701-1023,Placebo,0.0,64.0,<65,1.0,WHITE,1.0,M,Y,2012-08-05,2012-09-01,2012-08-07,,3.0,2012-08-30,26.0,24.0,DAY,ERYTHEMA,ERYTHEMA,,ERYTHEMA,,HLT_0284,,HLGT_0192,,SKIN AND SUBCUTANEOUS TISSUE DISORDERS,SKIN AND SUBCUTANEOUS TISSUE DISORDERS,,MILD,N,N,N,N,N,N,N,N,POSSIBLE,,NOT RECOVERED/NOT RESOLVED,1.0,Y,Y,Y,Y,,,,DERMATOLOGIC EVENTS,Y
CDISCPILOT01,701,01-701-1023,Placebo,0.0,64.0,<65,1.0,WHITE,1.0,M,Y,2012-08-05,2012-09-01,2012-08-07,,3.0,,,,,ERYTHEMA,LOCALIZED ERYTHEMA,,ERYTHEMA,,HLT_0284,,HLGT_0192,,SKIN AND SUBCUTANEOUS TISSUE DISORDERS,SKIN AND SUBCUTANEOUS TISSUE DISORDERS,,MODERATE,N,N,N,N,N,N,N,N,PROBABLE,,NOT RECOVERED/NOT RESOLVED,2.0,Y,,,,,,,DERMATOLOGIC EVENTS,
CDISCPILOT01,701,01-701-1023,Placebo,0.0,64.0,<65,1.0,WHITE,1.0,M,Y,2012-08-05,2012-09-01,2012-08-26,,22.0,,,,,ATRIOVENTRICULAR BLOCK SECOND DEGREE,AV BLOCK SECOND DEGREE,,ATRIOVENTRICULAR BLOCK SECOND DEGREE,,HLT_0415,,HLGT_0086,,CARDIAC DISORDERS,CARDIAC DISORDERS,,MILD,N,N,N,N,N,N,N,N,POSSIBLE,,NOT RECOVERED/NOT RESOLVED,3.0,Y,,Y,Y,,,,,
CDISCPILOT01,701,01-701-1023,Placebo,0.0,64.0,<65,1.0,WHITE,1.0,M,Y,2012-08-05,2012-09-01,2012-08-07,,3.0,2012-08-30,26.0,24.0,DAY,ERYTHEMA,ERYTHEMA,,ERYTHEMA,,HLT_0284,,HLGT_0192,,SKIN AND SUBCUTANEOUS TISSUE DISORDERS,SKIN AND SUBCUTANEOUS TISSUE DISORDERS,,MILD,N,N,N,N,N,N,N,N,POSSIBLE,,RECOVERED/RESOLVED,4.0,Y,,,,,,,DERMATOLOGIC EVENTS,
CDISCPILOT01,701,01-701-1028,Xanomeline High Dose,81.0,71.0,65-80,2.0,WHITE,1.0,M,Y,2013-07-19,2014-01-14,2013-07-21,,3.0,,,,,APPLICATION SITE ERYTHEMA,APPLICATION SITE ERYTHEMA,,APPLICATION SITE ERYTHEMA,,HLT_0617,,HLGT_0152,,GENERAL DISORDERS AND ADMINISTRATION SITE CONDITIONS,GENERAL DISORDERS AND ADMINISTRATION SITE CONDITIONS,,MILD,N,N,N,N,N,N,N,N,POSSIBLE,,NOT RECOVERED/NOT RESOLVED,1.0,Y,Y,Y,Y,,,,DERMATOLOGIC EVENTS,Y
CDISCPILOT01,701,01-701-1028,Xanomeline High Dose,81.0,71.0,65-80,2.0,WHITE,1.0,M,Y,2013-07-19,2014-01-14,2013-08-08,,21.0,,,,,APPLICATION SITE PRURITUS,APPLICATION SITE ITCHING,,APPLICATION SITE PRURITUS,,HLT_0317,,HLGT_0338,,GENERAL DISORDERS AND ADMINISTRATION SITE CONDITIONS,GENERAL DISORDERS AND ADMINISTRATION SITE CONDITIONS,,MILD,N,N,N,N,N,N,N,N,PROBABLE,,NOT RECOVERED/NOT RESOLVED,2.0,Y,,,Y,,,,DERMATOLOGIC EVENTS,
CDISCPILOT01,701,01-701-1034,Xanomeline High Dose,81.0,77.0,65-80,2.0,WHITE,1.0,F,Y,2014-07-01,2014-12-30,2014-08-27,,58.0,,,,,APPLICATION SITE PRURITUS,APPLICATION SITE ITCHING,,APPLICATION SITE PRURITUS,,HLT_0317,,HLGT_0338,,GENERAL DISORDERS AND ADMINISTRATION SITE CONDITIONS,GENERAL DISORDERS AND ADMINISTRATION SITE CONDITIONS,,MILD,N,N,N,N,N,N,N,N,PROBABLE,,NOT RECOVERED/NOT RESOLVED,1.0,Y,Y,Y,Y,,,,DERMATOLOGIC EVENTS,Y
CDISCPILOT01,701,01-701-1034,Xanomeline High Dose,81.0,77.0,65-80,2.0,WHITE,1.0,F,Y,2014-07-01,2014-12-30,2014-11-02,,125.0,,,,,FATIGUE,FATIGUE,,FATIGUE,,HLT_0043,,HLGT_0181,,GENERAL DISORDERS AND ADMINISTRATION SITE CONDITIONS,GENERAL DISORDERS AND ADMINISTRATION SITE CONDITIONS,,MILD,N,N,N,N,N,N,N,N,POSSIBLE,,NOT RECOVERED/NOT RESOLVED,2.0,Y,,,Y,,,,,
CDISCPILOT01,701,01-701-1047,Placebo,0.0,85.0,>80,3.0,WHITE,1.0,F,Y,2013-02-12,2013-03-09,2013-02-12,,1.0,2013-02-12,1.0,1.0,DAY,HIATUS HERNIA,HERNIA HIATAL,,HIATUS HERNIA,,HLT_0159,,HLGT_0109,,GASTROINTESTINAL DISORDERS,GASTROINTESTINAL DISORDERS,,MODERATE,N,N,N,N,N,N,N,N,NONE,,NOT RECOVERED/NOT RESOLVED,1.0,Y,Y,Y,Y,,,,,
CDISCPILOT01,701,01-701-1047,Placebo,0.0,85.0,>80,3.0,WHITE,1.0,F,Y,2013-02-12,2013-03-09,2013-02-12,,1.0,2013-02-12,1.0,1.0,DAY,HIATUS HERNIA,HERNIA HIATAL,,HIATUS HERNIA,,HLT_0159,,HLGT_0109,,GASTROINTESTINAL DISORDERS,GASTROINTESTINAL DISORDERS,,MODERATE,N,N,N,N,N,N,N,N,NONE,,RECOVERED/RESOLVED,2.0,Y,,,,,,,,
CDISCPILOT01,701,01-701-1047,Placebo,0.0,85.0,>80,3.0,WHITE,1.0,F,Y,2013-02-12,2013-03-09,2013-03-06,,23.0,,,,,UPPER RESPIRATORY TRACT INFECTION,UPPER RESPIRATORY INFECTION,,UPPER RESPIRATORY TRACT INFECTION,,HLT_0520,,HLGT_0489,,INFECTIONS AND INFESTATIONS,INFECTIONS AND INFESTATIONS,,MILD,N,N,N,N,N,N,N,N,NONE,,NOT RECOVERED/NOT RESOLVED,3.0,Y,,Y,Y,,,,,
CDISCPILOT01,701,01-701-1047,Placebo,0.0,85.0,>80,3.0,WHITE,1.0,F,Y,2013-02-12,2013-03-09,2013-03-10,,27.0,,,,,BUNDLE BRANCH BLOCK LEFT,LEFT BUNDLE BRANCH BLOCK,,BUNDLE BRANCH BLOCK LEFT,,HLT_0281,,HLGT_0721,,CARDIAC DISORDERS,CARDIAC DISORDERS,,MILD,N,N,N,N,N,N,N,N,NONE,,NOT RECOVERED/NOT RESOLVED,4.0,Y,,Y,Y,,,,,
CDISCPILOT01,701,01-701-1097,Xanomeline Low Dose,54.0,68.0,65-80,2.0,WHITE,1.0,M,Y,2014-01-01,2014-07-09,2014-01-03,,3.0,,,,,ERYTHEMA,ERYTHEMA,,ERYTHEMA,,HLT_0284,,HLGT_0192,,SKIN AND SUBCUTANEOUS TISSUE DISORDERS,SKIN AND SUBCUTANEOUS TISSUE DISORDERS,,MILD,N,N,N,N,N,N,N,N,POSSIBLE,,NOT RECOVERED/NOT RESOLVED,1.0,Y,Y,Y,Y,,,,DERMATOLOGIC EVENTS,Y
CDISCPILOT01,701,01-701-1097,Xanomeline Low Dose,54.0,68.0,65-80,2.0,WHITE,1.0,M,Y,2014-01-01,2014-07-09,2014-02-20,,51.0,2014-02-20,51.0,1.0,DAY,PRURITUS GENERALISED,GENERALIZED PRURITUS,,PRURITUS GENERALISED,,HLT_0123,,HLGT_0689,,SKIN AND SUBCUTANEOUS TISSUE DISORDERS,SKIN AND SUBCUTANEOUS TISSUE DISORDERS,,MODERATE,N,N,N,N,N,N,N,N,POSSIBLE,,RECOVERED/RESOLVED,2.0,Y,,,Y,,,,DERMATOLOGIC EVENTS,
CDISCPILOT01,701,01-701-1097,Xanomeline Low Dose,54.0,68.0,65-80,2.0,WHITE,1.0,M,Y,2014-01-01,2014-07-09,2014-02-20,,51.0,2014-02-22,53.0,3.0,DAY,APPLICATION SITE VESICLES,APPLICATION SITE BLISTER,,APPLICATION SITE VESICLES,,HLT_0180,,HLGT_0576,,GENERAL DISORDERS AND ADMINISTRATION SITE CONDITIONS,GENERAL DISORDERS AND ADMINISTRATION SITE CONDITIONS,,MILD,N,N,N,N,N,N,N,N,PROBABLE,,RECOVERED/RESOLVED,3.0,Y,,Y,Y,,,,DERMATOLOGIC EVENTS,
CDISCPILOT01,701,01-701-1097,Xanomeline Low Dose,54.0,68.0,65-80,2.0,WHITE,1.0,M,Y,2014-01-01,2014-07-09,2014-02-21,,52.0,,,,,APPLICATION SITE PRURITUS,APPLICATION SITE ITCHING,,APPLICATION SITE PRURITUS,,HLT_0317,,HLGT_0338,,GENERAL DISORDERS AND ADMINISTRATION SITE CONDITIONS,GENERAL DISORDERS AND ADMINISTRATION SITE CONDITIONS,,MILD,N,N,N,N,N,N,N,N,POSSIBLE,,NOT RECOVERED/NOT RESOLVED,4.0,Y,,,Y,,,,DERMATOLOGIC EVENTS,
CDISCPILOT01,701,01-701-1097,Xanomeline Low Dose,54.0,68.0,65-80,2.0,WHITE,1.0,M,Y,2014-01-01,2014-07-09,2014-03-21,,80.0,2014-03-21,80.0,1.0,DAY,PRURITUS GENERALISED,GENERALIZED PRURITUS,,PRURITUS GENERALISED,,HLT_0123,,HLGT_0689,,SKIN AND SUBCUTANEOUS TISSUE DISORDERS,SKIN AND SUBCUTANEOUS TISSUE DISORDERS,,MODERATE,N,N,N,N,N,N,N,N,POSSIBLE,,RECOVERED/RESOLVED,5.0,Y,,,,,,,DERMATOLOGIC EVENTS,
CDISCPILOT01,701,01-701-1097,Xanomeline Low Dose,54.0,68.0,65-80,2.0,WHITE,1.0,M,Y,2014-01-01,2014-07-09,2014-03-31,,90.0,2014-03-31,90.0,1.0,DAY,PRURITUS GENERALISED,GENERALIZED PRURITUS,,PRURITUS GENERALISED,,HLT_0123,,HLGT_0689,,SKIN AND SUBCUTANEOUS TISSUE DISORDERS,SKIN AND SUBCUTANEOUS TISSUE DISORDERS,,MODERATE,N,N,N,N,N,N,N,N,POSSIBLE,,RECOVERED/RESOLVED,6.0,Y,,,,,,,DERMATOLOGIC EVENTS,
CDISCPILOT01,701,01-701-1097,Xanomeline Low Dose,54.0,68.0,65-80,2.0,WHITE,1.0,M,Y,2014-01-01,2014-07-09,2014-04-19,,109.0,2014-04-20,110.0,2.0,DAY,PRURITUS GENERALISED,GENERALIZED PRURITUS,,PRURITUS GENERALISED,,HLT_0123,,HLGT_0689,,SKIN AND SUBCUTANEOUS TISSUE DISORDERS,SKIN AND SUBCUTANEOUS TISSUE DISORDERS,,MODERATE,N,N,N,N,N,N,N,N,POSSIBLE,,RECOVERED/RESOLVED,7.0,Y,,,,,,,DERMATOLOGIC EVENTS,
CDISCPILOT01,701,01-701-1097,Xanomeline Low Dose,54.0,68.0,65-80,2.0,WHITE,1.0,M,Y,2014-01-01,2014-07-09,2014-04-19,,109.0,2014-04-22,112.0,4.0,DAY,PHARYNGOLARYNGEAL PAIN,SORE THROAT,,PHARYNGOLARYNGEAL PAIN,,HLT_0130,,HLGT_0402,,"RESPIRATORY, THORACIC AND MEDIASTINAL DISORDERS","RESPIRATORY, THORACIC AND MEDIASTINAL DISORDERS",,MILD,N,N,N,N,N,N,N,N,NONE,,RECOVERED/RESOLVED,8.0,Y,,Y,Y,,,,,
CDISCPILOT01,701,01-701-1097,Xanomeline Low Dose,54.0,68.0,65-80,2.0,WHITE,1.0,M,Y,2014-01-01,2014-07-09,2014-04-19,,109.0,2014-04-22,112.0,4.0,DAY,NASAL CONGESTION,NASAL CONGESTION,,NASAL CONGESTION,,HLT_0118,,HLGT_0549,,"RESPIRATORY, THORACIC AND MEDIASTINAL DISORDERS","RESPIRATORY, THORACIC AND MEDIASTINAL DISORDERS",,MILD,N,N,N,N,N,N,N,N,NONE,,RECOVERED/RESOLVED,9.0,Y,,,Y,,,,,
CDISCPILOT01,701,01-701-1097,Xanomeline Low Dose,54.0,68.0,65-80,2.0,WHITE,1.0,M,Y,2014-01-01,2014-07-09,2014-02-21,,52.0,,,,,APPLICATION SITE PRURITUS,APPLICATION SITE ITCHING,,APPLICATION SITE PRURITUS,,HLT_0317,,HLGT_0338,,GENERAL DISORDERS AND ADMINISTRATION SITE CONDITIONS,GENERAL DISORDERS AND ADMINISTRATION SITE CONDITIONS,,MODERATE,N,N,N,N,N,N,N,N,POSSIBLE,,NOT RECOVERED/NOT RESOLVED,10.0,Y,,,,,,,DERMATOLOGIC EVENTS,
CDISCPILOT01,701,01-701-1111,Xanomeline Low Dose,54.0,81.0,>80,3.0,WHITE,1.0,F,Y,2012-09-07,2012-09-16,2012-09-02,,-5.0,2012-09-07,1.0,6.0,DAY,ERYTHEMA,ERYTHEMA,,ERYTHEMA,,HLT_0284,,HLGT_0192,,SKIN AND SUBCUTANEOUS TISSUE DISORDERS,SKIN AND SUBCUTANEOUS TISSUE DISORDERS,,MILD,N,N,N,N,N,N,N,N,NONE,,NOT RECOVERED/NOT RESOLVED,1.0,,,,,,,,DERMATOLOGIC EVENTS,
CDISCPILOT01,701,01-701-1111,Xanomeline Low Dose,54.0,81.0,>80,3.0,WHITE,1.0,F,Y,2012-09-07,2012-09-16,2012-09-02,,-5.0,2012-09-07,1.0,6.0,DAY,PRURITUS,ITCHING,,PRURITUS,,HLT_0778,,HLGT_0695,,SKIN AND SUBCUTANEOUS TISSUE DISORDERS,SKIN AND SUBCUTANEOUS TISSUE DISORDERS,,MILD,N,N,N,N,N,N,N,N,NONE,,NOT RECOVERED/NOT RESOLVED,2.0,,,,,,,,DERMATOLOGIC EVENTS,
CDISCPILOT01,701,01-701-1111,Xanomeline Low Dose,54.0,81.0,>80,3.0,WHITE,1.0,F,Y,2012-09-07,2012-09-16,2012-07-08,,-61.0,,,,,LOCALISED INFECTION,LOCALIZED INFECTION,,LOCALISED INFECTION,,HLT_0435,,HLGT_0557,,INFECTIONS AND INFESTATIONS,INFECTIONS AND INFESTATIONS,,MODERATE,N,N,N,N,N,N,N,N,NONE,,NOT RECOVERED/NOT RESOLVED,3.0,,,,,,,,,
CDISCPILOT01,701,01-701-1111,Xanomeline Low Dose,54.0,81.0,>80,3.0,WHITE,1.0,F,Y,2012-09-07,2012-09-16,2012-09-02,,-5.0,2012-09-07,1.0,6.0,DAY,ERYTHEMA,ERYTHEMA,,ERYTHEMA,,HLT_0284,,HLGT_0192,,SKIN AND SUBCUTANEOUS TISSUE DISORDERS,SKIN AND SUBCUTANEOUS TISSUE DISORDERS,,MILD,N,N,N,N,N,N,N,N,NONE,,RECOVERED/RESOLVED,4.0,,,,,,,,DERMATOLOGIC EVENTS,
CDISCPILOT01,701,01-701-1111,Xanomeline Low Dose,54.0,81.0,>80,3.0,WHITE,1.0,F,Y,2012-09-07,2012-09-16,2012-09-02,,-5.0,2012-09-07,1.0,6.0,DAY,PRURITUS,ITCHING,,PRURITUS,,HLT_0778,,HLGT_0695,,SKIN AND SUBCUTANEOUS TISSUE DISORDERS,SKIN AND SUBCUTANEOUS TISSUE DISORDERS,,MILD,N,N,N,N,N,N,N,N,NONE,,RECOVERED/RESOLVED,5.0,,,,,,,,DERMATOLOGIC EVENTS,
CDISCPILOT01,701,01-701-1111,Xanomeline Low Dose,54.0,81.0,>80,3.0,WHITE,1.0,F,Y,2012-09-07,2012-09-16,2012-09-07,,1.0,,,,,MICTURITION URGENCY,URINARY URGENCY,,MICTURITION URGENCY,,HLT_0294,,HLGT_0483,,RENAL AND URINARY DISORDERS,RENAL AND URINARY DISORDERS,,MILD,N,N,N,N,N,N,N,N,NONE,,NOT RECOVERED/NOT RESOLVED,6.0,Y,Y,Y,Y,,,,,
CDISCPILOT01,701,01-701-1111,Xanomeline Low Dose,54.0,81.0,>80,3.0,WHITE,1.0,F,Y,2012-09-07,2012-09-16,2012-09-13,,7.0,,,,,ARTHRALGIA,GENERALIZED JOINT PAIN,,ARTHRALGIA,,HLT_0375,,HLGT_0610,,MUSCULOSKELETAL AND CONNECTIVE TISSUE DISORDERS,MUSCULOSKELETAL AND CONNECTIVE TISSUE DISORDERS,,MODERATE,N,N,N,N,N,N,N,N,NONE,,NOT RECOVERED/NOT RESOLVED,7.0,Y,,Y,Y,,,,,
CDISCPILOT01,701,01-701-1111,Xanomeline Low Dose,54.0,81.0,>80,3.0,WHITE,1.0,F,Y,2012-09-07,2012-09-16,2012-09-13,,7.0,,,,,CELLULITIS,CELLULITIS OF LEG,,CELLULITIS,,HLT_0613,,HLGT_0066,,INFECTIONS AND INFESTATIONS,INFECTIONS AND INFESTATIONS,,MODERATE,N,N,N,N,N,N,N,N,NONE,,NOT RECOVERED/NOT RESOLVED,8.0,Y,,Y,Y,,,,,
CDISCPILOT01,701,01-701-1115,Xanomeline Low Dose,54.0,84.0,>80,3.0,WHITE,1.0,M,Y,2012-11-30,2013-01-23,2012-12-02,,3.0,,,,,APPLICATION SITE ERYTHEMA,APPLICATION SITE REDNESS,,APPLICATION SITE ERYTHEMA,,HLT_0617,,HLGT_0152,,GENERAL DISORDERS AND ADMINISTRATION SITE CONDITIONS,GENERAL DISORDERS AND ADMINISTRATION SITE CONDITIONS,,MILD,N,N,N,N,N,N,N,N,PROBABLE,,NOT RECOVERED/NOT RESOLVED,1.0,Y,Y,Y,Y,,,,DERMATOLOGIC EVENTS,Y
CDISCPILOT01,701,01-701-1115,Xanomeline Low Dose,54.0,84.0,>80,3.0,WHITE,1.0,M,Y,2012-11-30,2013-01-23,2012-12-02,,3.0,,,,,APPLICATION SITE PRURITUS,APPLICATION SITE ITCHING,,APPLICATION SITE PRURITUS,,HLT_0317,,HLGT_0338,,GENERAL DISORDERS AND ADMINISTRATION SITE CONDITIONS,GENERAL DISORDERS AND ADMINISTRATION SITE CONDITIONS,,MILD,N,N,N,N,N,N,N,N,PROBABLE,,NOT RECOVERED/NOT RESOLVED,2.0,Y,,,Y,,,,DERMATOLOGIC EVENTS,
CDISCPILOT01,701,01-701-1115,Xanomeline Low Dose,54.0,84.0,>80,3.0,WHITE,1.0,M,Y,2012-11-30,2013-01-23,2012-12-26,,27.0,2012-12-26,27.0,1.0,DAY,APPLICATION SITE IRRITATION,APPLICATION SITE BURNING,,APPLICATION SITE IRRITATION,,HLT_0061,,HLGT_0346,,GENERAL DISORDERS AND ADMINISTRATION SITE CONDITIONS,GENERAL DISORDERS AND ADMINISTRATION SITE CONDITIONS,,MILD,N,N,N,N,N,N,N,N,POSSIBLE,,NOT RECOVERED/NOT RESOLVED,3.0,Y,,,Y,,,,DERMATOLOGIC EVENTS,
CDISCPILOT01,701,01-701-1115,Xanomeline Low Dose,54.0,84.0,>80,3.0,WHITE,1.0,M,Y,2012-11-30,2013-01-23,2012-12-26,,27.0,2012-12-26,27.0,1.0,DAY,APPLICATION SITE IRRITATION,APPLICATION SITE BURNING,,APPLICATION SITE IRRITATION,,HLT_0061,,HLGT_0346,,GENERAL DISORDERS AND ADMINISTRATION SITE CONDITIONS,GENERAL DISORDERS AND ADMINISTRATION SITE CONDITIONS,,MILD,N,N,N,N,N,N,N,N,POSSIBLE,,RECOVERED/RESOLVED,4.0,Y,,,,,,,DERMATOLOGIC EVENTS,
CDISCPILOT01,701,01-701-1115,Xanomeline Low Dose,54.0,84.0,>80,3.0,WHITE,1.0,M,Y,2012-11-30,2013-01-23,2012-12-02,,3.0,,,,,APPLICATION SITE ERYTHEMA,APPLICATION SITE REDNESS,,APPLICATION SITE ERYTHEMA,,HLT_0617,,HLGT_0152,,GENERAL DISORDERS AND ADMINISTRATION SITE CONDITIONS,GENERAL DISORDERS AND ADMINISTRATION SITE CONDITIONS,,MODERATE,N,N,N,N,N,N,N,N,PROBABLE,,NOT RECOVERED/NOT RESOLVED,5.0,Y,,,,,,,DERMATOLOGIC EVENTS,
CDISCPILOT01,701,01-701-1115,Xanomeline Low Dose,54.0,84.0,>80,3.0,WHITE,1.0,M,Y,2012-11-30,2013-01-23,2012-12-02,,3.0,,,,,APPLICATION SITE PRURITUS,APPLICATION SITE ITCHING,,APPLICATION SITE PRURITUS,,HLT_0317,,HLGT_0338,,GENERAL DISORDERS AND ADMINISTRATION SITE CONDITIONS,GENERAL DISORDERS AND ADMINISTRATION SITE CONDITIONS,,MODERATE,N,N,N,N,N,N,N,N,PROBABLE,,NOT RECOVERED/NOT RESOLVED,6.0,Y,,,,,,,DERMATOLOGIC EVENTS,
CDISCPILOT01,701,01-701-1115,Xanomeline Low Dose,54.0,84.0,>80,3.0,WHITE,1.0,M,Y,2012-11-30,2013-01-23,2013-01-14,,46.0,,,,,FATIGUE,FATIGUE,,FATIGUE,,HLT_0043,,HLGT_0181,,GENERAL DISORDERS AND ADMINISTRATION SITE CONDITIONS,GENERAL DISORDERS AND ADMINISTRATION SITE CONDITIONS,,MODERATE,N,N,N,N,N,N,N,N,REMOTE,,NOT RECOVERED/NOT RESOLVED,7.0,Y,,,Y,,,,,
CDISCPILOT01,701,01-701-1115,Xanomeline Low Dose,54.0,84.0,>80,3.0,WHITE,1.0,M,Y,2012-11-30,2013-01-23,2013-01-19,,51.0,,,,,APPLICATION SITE IRRITATION,APPLICATION SITE BURNING,,APPLICATION SITE IRRITATION,,HLT_0061,,HLGT_0346,,GENERAL DISORDERS AND ADMINISTRATION SITE CONDITIONS,GENERAL DISORDERS AND ADMINISTRATION SITE CONDITIONS,,MODERATE,N,N,N,N,N,N,N,N,PROBABLE,,NOT RECOVERED/NOT RESOLVED,8.0,Y,,,,,,,DERMATOLOGIC EVENTS,
CDISCPILOT01,701,01-701-1115,Xanomeline Low Dose,54.0,84.0,>80,3.0,WHITE,1.0,M,Y,2012-11-30,2013-01-23,2013-01-19,,51.0,,,,,APPLICATION SITE DERMATITIS,APPLICATION SITE RASH,,APPLICATION SITE DERMATITIS,,HLT_0343,,HLGT_0241,,GENERAL DISORDERS AND ADMINISTRATION SITE CONDITIONS,GENERAL DISORDERS AND ADMINISTRATION SITE CONDITIONS,,MODERATE,N,N,N,N,N,N,N,N,PROBABLE,,NOT RECOVERED/NOT RESOLVED,9.0,Y,,,Y,,,,DERMATOLOGIC EVENTS,
CDISCPILOT01,701,01-701-1118,Placebo,0.0,52.0,<65,1.0,WHITE,1.0,M,Y,2014-03-12,2014-09-09,,,,,,,,COUGH,COUGH,,COUGH,,HLT_0701,,HLGT_0280,,"RESPIRATORY, THORACIC AND MEDIASTINAL DISORDERS","RESPIRATORY, THORACIC AND MEDIASTINAL DISORDERS",,MILD,N,N,N,N,N,N,N,N,NONE,,NOT RECOVERED/NOT RESOLVED,1.0,,,,,,,,,
CDISCPILOT01,701,01-701-1130,Placebo,0.0,84.0,>80,3.0,WHITE,1.0,M,Y,2014-02-15,2014-08-16,2014-03-09,,23.0,2014-03-16,30.0,8.0,DAY,URINARY TRACT INFECTION,URINARY TRACT INFECTION,,URINARY TRACT INFECTION,,HLT_0161,,HLGT_0093,,INFECTIONS AND INFESTATIONS,INFECTIONS AND INFESTATIONS,,MILD,N,N,N,N,N,N,N,N,NONE,,NOT RECOVERED/NOT RESOLVED,1.0,Y,Y,Y,Y,,,,,
CDISCPILOT01,701,01-701-1130,Placebo,0.0,84.0,>80,3.0,WHITE,1.0,M,Y,2014-02-15,2014-08-16,2014-03-09,,23.0,2014-03-09,23.0,1.0,DAY,PYREXIA,FEVER,,PYREXIA,,HLT_0310,,HLGT_0652,,GENERAL DISORDERS AND ADMINISTRATION SITE CONDITIONS,GENERAL DISORDERS AND ADMINISTRATION SITE CONDITIONS,,MILD,N,N,N,N,N,N,N,N,NONE,,RECOVERED/RESOLVED,2.0,Y,,Y,Y,,,,,
CDISCPILOT01,701,01-701-1130,Placebo,0.0,84.0,>80,3.0,WHITE,1.0,M,Y,2014-02-15,2014-08-16,2014-03-09,,23.0,2014-03-16,30.0,8.0,DAY,URINARY TRACT INFECTION,URINARY TRACT INFECTION,,URINARY TRACT INFECTION,,HLT_0161,,HLGT_0093,,INFECTIONS AND INFESTATIONS,INFECTIONS AND INFESTATIONS,,MILD,N,N,N,N,N,N,N,N,NONE,,RECOVERED/RESOLVED,3.0,Y,,,,,,,,
CDISCPILOT01,701,01-701-1130,Placebo,0.0,84.0,>80,3.0,WHITE,1.0,M,Y,2014-02-15,2014-08-16,2014-05-09,,84.0,2014-05-09,84.0,1.0,DAY,EYE SWELLING,EYES SWOLLEN,,EYE SWELLING,,HLT_0008,,HLGT_0466,,EYE DISORDERS,EYE DISORDERS,,MILD,N,N,N,N,N,N,N,N,NONE,,RECOVERED/RESOLVED,4.0,Y,,Y,Y,,,,,
CDISCPILOT01,701,01-701-1130,Placebo,0.0,84.0,>80,3.0,WHITE,1.0,M,Y,2014-02-15,2014-08-16,2014-05-09,,84.0,2014-05-09,84.0,1.0,DAY,EYE ALLERGY,EYE ALLERGY,,EYE ALLERGY,,HLT_0256,,HLGT_0071,,EYE DISORDERS,EYE DISORDERS,,MILD,N,N,N,N,N,N,N,N,NONE,,RECOVERED/RESOLVED,5.0,Y,,,Y,,,,,
CDISCPILOT01,701,01-701-1130,Placebo,0.0,84.0,>80,3.0,WHITE,1.0,M,Y,2014-02-15,2014-08-16,2014-05-22,,97.0,,,,,EYE PRURITUS,EYE ITCHING,,EYE PRURITUS,,HLT_0523,,HLGT_0240,,EYE DISORDERS,EYE DISORDERS,,MILD,N,N,N,N,N,N,N,N,REMOTE,,NOT RECOVERED/NOT RESOLVED,6.0,Y,,,Y,,,,,
CDISCPILOT01,701,01-701-1130,Placebo,0.0,84.0,>80,3.0,WHITE,1.0,M,Y,2014-02-15,2014-08-16,2014-05-22,,97.0,,,,,PRURITUS,ITCHING BOTH HANDS,,PRURITUS,,HLT_0778,,HLGT_0695,,SKIN AND SUBCUTANEOUS TISSUE DISORDERS,SKIN AND SUBCUTANEOUS TISSUE DISORDERS,,MILD,N,N,N,N,N,N,N,N,REMOTE,,NOT RECOVERED/NOT RESOLVED,7.0,Y,,Y,Y,,,,DERMATOLOGIC EVENTS,Y
CDISCPILOT01,701,01-701-1130,Placebo,0.0,84.0,>80,3.0,WHITE,1.0,M,Y,2014-02-15,2014-08-16,2014-05-22,,97.0,,,,,NASAL CONGESTION,NASAL CONGESTION,,NASAL CONGESTION,,HLT_0118,,HLGT_0549,,"RESPIRATORY, THORACIC AND MEDIASTINAL DISORDERS","RESPIRATORY, THORACIC AND MEDIASTINAL DISORDERS",,MILD,N,N,N,N,N,N,N,N,REMOTE,,NOT RECOVERED/NOT RESOLVED,8.0,Y,,Y,Y,,,,,
CDISCPILOT01,701,01-701-1133,Xanomeline High Dose,81.0,81.0,>80,3.0,WHITE,1.0,F,Y,2012-10-28,2013-04-28,2012-12-27,,61.0,,,,,APPLICATION SITE ERYTHEMA,APPLICATION SITE REDNESS,,APPLICATION SITE ERYTHEMA,,HLT_0617,,HLGT_0152,,GENERAL DISORDERS AND ADMINISTRATION SITE CONDITIONS,GENERAL DISORDERS AND ADMINISTRATION SITE CONDITIONS,,MILD,N,N,N,N,N,N,N,N,PROBABLE,,NOT RECOVERED/NOT RESOLVED,1.0,Y,Y,Y,Y,,,,DERMATOLOGIC EVENTS,Y
CDISCPILOT01,701,01-701-1133,Xanomeline High Dose,81.0,81.0,>80,3.0,WHITE,1.0,F,Y,2012-10-28,2013-04-28,2012-12-27,,61.0,,,,,APPLICATION SITE PRURITUS,APPLICATION SITE ITCHING,,APPLICATION SITE PRURITUS,,HLT_0317,,HLGT_0338,,GENERAL DISORDERS AND ADMINISTRATION SITE CONDITIONS,GENERAL DISORDERS AND ADMINISTRATION SITE CONDITIONS,,MILD,N,N,N,N,N,N,N,N,PROBABLE,,NOT RECOVERED/NOT RESOLVED,2.0,Y,,,Y,,,,DERMATOLOGIC EVENTS,
CDISCPILOT01,701,01-701-1133,Xanomeline High Dose,81.0,81.0,>80,3.0,WHITE,1.0,F,Y,2012-10-28,2013-04-28,2012-12-27,,61.0,,,,,APPLICATION SITE ERYTHEMA,APPLICATION SITE REDNESS,,APPLICATION SITE ERYTHEMA,,HLT_0617,,HLGT_0152,,GENERAL DISORDERS AND ADMINISTRATION SITE CONDITIONS,GENERAL DISORDERS AND ADMINISTRATION SITE CONDITIONS,,MODERATE,N,N,N,N,N,N,N,N,PROBABLE,,NOT RECOVERED/NOT RESOLVED,3.0,Y,,,,,,,DERMATOLOGIC EVENTS,
CDISCPILOT01,701,01-701-1133,Xanomeline High Dose,81.0,81.0,>80,3.0,WHITE,1.0,F,Y,2012-10-28,2013-04-28,2012-12-27,,61.0,,,,,APPLICATION SITE PRURITUS,APPLICATION SITE ITCHING,,APPLICATION SITE PRURITUS,,HLT_0317,,HLGT_0338,,GENERAL DISORDERS AND ADMINISTRATION SITE CONDITIONS,GENERAL DISORDERS AND ADMINISTRATION SITE CONDITIONS,,MODERATE,N,N,N,N,N,N,N,N,PROBABLE,,NOT RECOVERED/NOT RESOLVED,4.0,Y,,,,,,,DERMATOLOGIC EVENTS,
CDISCPILOT01,701,01-701-1146,Xanomeline High Dose,81.0,75.0,65-80,2.0,WHITE,1.0,F,Y,2013-05-20,2013-06-26,2013-05-16,,-4.0,2013-06-02,14.0,18.0,DAY,RASH,RASH,,RASH,,HLT_0762,,HLGT_0198,,SKIN AND SUBCUTANEOUS TISSUE DISORDERS,SKIN AND SUBCUTANEOUS TISSUE DISORDERS,,MILD,N,N,N,N,N,N,N,N,NONE,,NOT RECOVERED/NOT RESOLVED,1.0,,,,,,,,DERMATOLOGIC EVENTS,
CDISCPILOT01,701,01-701-1146,Xanomeline High Dose,81.0,75.0,65-80,2.0,WHITE,1.0,F,Y,2013-05-20,2013-06-26,2013-05-16,,-4.0,2013-06-02,14.0,18.0,DAY,RASH,RASH,,RASH,,HLT_0762,,HLGT_0198,,SKIN AND SUBCUTANEOUS TISSUE DISORDERS,SKIN AND SUBCUTANEOUS TISSUE DISORDERS,,MILD,N,N,N,N,N,N,N,N,NONE,,RECOVERED/RESOLVED,2.0,,,,,,,,DERMATOLOGIC EVENTS,
CDISCPILOT01,701,01-701-1146,Xanomeline High Dose,81.0,75.0,65-80,2.0,WHITE,1.0,F,Y,2013-05-20,2013-06-26,2013-06-01,,13.0,2013-06-02,14.0,2.0,DAY,APPLICATION SITE IRRITATION,APPLICATION SITE IRRITATION,,APPLICATION SITE IRRITATION,,HLT_0061,,HLGT_0346,,GENERAL DISORDERS AND ADMINISTRATION SITE CONDITIONS,GENERAL DISORDERS AND ADMINISTRATION SITE CONDITIONS,,MILD,N,N,N,N,N,N,N,N,PROBABLE,,RECOVERED/RESOLVED,3.0,Y,Y,Y,Y,,,,DERMATOLOGIC EVENTS,Y
CDISCPILOT01,701,01-701-1146,Xanomeline High Dose,81.0,75.0,65-80,2.0,WHITE,1.0,F,Y,2013-05-20,2013-06-26,2013-06-03,,15.0,,,,,FATIGUE,FATIGUE,,FATIGUE,,HLT_0043,,HLGT_0181,,GENERAL DISORDERS AND ADMINISTRATION SITE CONDITIONS,GENERAL DISORDERS AND ADMINISTRATION SITE CONDITIONS,,MILD,N,N,N,N,N,N,N,N,POSSIBLE,,NOT RECOVERED/NOT RESOLVED,4.0,Y,,,Y,,,,,
CDISCPILOT01,701,01-701-1146,Xanomeline High Dose,81.0,75.0,65-80,2.0,WHITE,1.0,F,Y,2013-05-20,2013-06-26,2013-06-10,,22.0,,,,,APPLICATION SITE ERYTHEMA,APPLICATION SITE ERYTHEMA,,APPLICATION SITE ERYTHEMA,,HLT_0617,,HLGT_0152,,GENERAL DISORDERS AND ADMINISTRATION SITE CONDITIONS,GENERAL DISORDERS AND ADMINISTRATION SITE CONDITIONS,,MILD,N,N,N,N,N,N,N,N,PROBABLE,,NOT RECOVERED/NOT RESOLVED,5.0,Y,,,Y,,,,DERMATOLOGIC EVENTS,
CDISCPILOT01,701,01-701-1146,Xanomeline High Dose,81.0,75.0,65-80,2.0,WHITE,1.0,F,Y,2013-05-20,2013-06-26,2013-06-10,,22.0,,,,,APPLICATION SITE PRURITUS,APPLICATION SITE ITCHING,,APPLICATION SITE PRURITUS,,HLT_0317,,HLGT_0338,,GENERAL DISORDERS AND ADMINISTRATION SITE CONDITIONS,GENERAL DISORDERS AND ADMINISTRATION SITE CONDITIONS,,MILD,N,N,N,N,N,N,N,N,PROBABLE,,NOT RECOVERED/NOT RESOLVED,6.0,Y,,,Y,,,,DERMATOLOGIC EVENTS,
CDISCPILOT01,701,01-701-1146,Xanomeline High Dose,81.0,75.0,65-80,2.0,WHITE,1.0,F,Y,2013-05-20,2013-06-26,2013-06-10,,22.0,,,,,APPLICATION SITE ERYTHEMA,APPLICATION SITE ERYTHEMA,,APPLICATION SITE ERYTHEMA,,HLT_0617,,HLGT_0152,,GENERAL DISORDERS AND ADMINISTRATION SITE CONDITIONS,GENERAL DISORDERS AND ADMINISTRATION SITE CONDITIONS,,MODERATE,N,N,N,N,N,N,N,N,PROBABLE,,NOT RECOVERED/NOT RESOLVED,7.0,Y,,,,,,,DERMATOLOGIC EVENTS,
CDISCPILOT01,701,01-701-1146,Xanomeline High Dose,81.0,75.0,65-80,2.0,WHITE,1.0,F,Y,2013-05-20,2013-06-26,2013-06-10,,22.0,,,,,APPLICATION SITE PRURITUS,APPLICATION SITE ITCHING,,APPLICATION SITE PRURITUS,,HLT_0317,,HLGT_0338,,GENERAL DISORDERS AND ADMINISTRATION SITE CONDITIONS,GENERAL DISORDERS AND ADMINISTRATION SITE CONDITIONS,,MODERATE,N,N,N,N,N,N,N,N,PROBABLE,,NOT RECOVERED/NOT RESOLVED,8.0,Y,,,,,,,DERMATOLOGIC EVENTS,
CDISCPILOT01,701,01-701-1146,Xanomeline High Dose,81.0,75.0,65-80,2.0,WHITE,1.0,F,Y,2013-05-20,2013-06-26,2013-06-22,,34.0,,,,,APPLICATION SITE PAIN,APPLICATION SITE PAIN,,APPLICATION SITE PAIN,,HLT_0342,,HLGT_0085,,GENERAL DISORDERS AND ADMINISTRATION SITE CONDITIONS,GENERAL DISORDERS AND ADMINISTRATION SITE CONDITIONS,,MODERATE,N,N,N,N,N,N,N,N,PROBABLE,,NOT RECOVERED/NOT RESOLVED,9.0,Y,,,Y,,,,DERMATOLOGIC EVENTS,
CDISCPILOT01,701,01-701-1146,Xanomeline High Dose,81.0,75.0,65-80,2.0,WHITE,1.0,F,Y,2013-05-20,2013-06-26,2013-06-26,,38.0,,,,,APPLICATION SITE VESICLES,APPLICATION SITE VESICLES,,APPLICATION SITE VESICLES,,HLT_0180,,HLGT_0576,,GENERAL DISORDERS AND ADMINISTRATION SITE CONDITIONS,GENERAL DISORDERS AND ADMINISTRATION SITE CONDITIONS,,MODERATE,N,N,N,N,N,N,N,N,PROBABLE,,NOT RECOVERED/NOT RESOLVED,10.0,Y,,,Y,,,,DERMATOLOGIC EVENTS,
CDISCPILOT01,701,01-701-1146,Xanomeline High Dose,81.0,75.0,65-80,2.0,WHITE,1.0,F,Y,2013-05-20,2013-06-26,2013-06-26,,38.0,,,,,APPLICATION SITE IRRITATION,APPLICATION SITE BURNING,,APPLICATION SITE IRRITATION,,HLT_0061,,HLGT_0346,,GENERAL DISORDERS AND ADMINISTRATION SITE CONDITIONS,GENERAL DISORDERS AND ADMINISTRATION SITE CONDITIONS,,MODERATE,N,N,N,N,N,N,N,N,PROBABLE,,NOT RECOVERED/NOT RESOLVED,11.0,Y,,,,,,,DERMATOLOGIC EVENTS,
CDISCPILOT01,701,01-701-1148,Xanomeline High Dose,81.0,57.0,<65,1.0,WHITE,1.0,M,Y,2013-08-23,2014-02-20,2013-08-25,,3.0,,,,,APPLICATION SITE ERYTHEMA,APPLICATION SITE REDNESS,,APPLICATION SITE ERYTHEMA,,HLT_0617,,HLGT_0152,,GENERAL DISORDERS AND ADMINISTRATION SITE CONDITIONS,GENERAL DISORDERS AND ADMINISTRATION SITE CONDITIONS,,MILD,N,N,N,N,N,N,N,N,PROBABLE,,NOT RECOVERED/NOT RESOLVED,1.0,Y,Y,Y,Y,,,,DERMATOLOGIC EVENTS,Y
CDISCPILOT01,701,01-701-1148,Xanomeline High Dose,81.0,57.0,<65,1.0,WHITE,1.0,M,Y,2013-08-23,2014-02-20,2013-08-25,,3.0,,,,,APPLICATION SITE PRURITUS,APPLICATION SITE ITCHING,,APPLICATION SITE PRURITUS,,HLT_0317,,HLGT_0338,,GENERAL DISORDERS AND ADMINISTRATION SITE CONDITIONS,GENERAL DISORDERS AND ADMINISTRATION SITE CONDITIONS,,MILD,N,N,N,N,N,N,N,N,PROBABLE,,NOT RECOVERED/NOT RESOLVED,2.0,Y,,,Y,,,,DERMATOLOGIC EVENTS,
CDISCPILOT01,701,01-701-1148,Xanomeline High Dose,81.0,57.0,<65,1.0,WHITE,1.0,M,Y,2013-08-23,2014-02-20,2013-10-12,,51.0,2013-11-10,80.0,30.0,DAY,LOWER RESPIRATORY TRACT INFECTION,CHEST COLD,,LOWER RESPIRATORY TRACT INFECTION,,HLT_0052,,HLGT_0217,,INFECTIONS AND INFESTATIONS,INFECTIONS AND INFESTATIONS,,MODERATE,N,N,N,N,N,N,N,N,NONE,,NOT RECOVERED/NOT RESOLVED,3.0,Y,,Y,Y,,,,,
CDISCPILOT01,701,01-701-1148,Xanomeline High Dose,81.0,57.0,<65,1.0,WHITE,1.0,M,Y,2013-08-23,2014-02-20,2013-10-12,,51.0,2013-11-10,80.0,30.0,DAY,LOWER RESPIRATORY TRACT INFECTION,CHEST COLD,,LOWER RESPIRATORY TRACT INFECTION,,HLT_0052,,HLGT_0217,,INFECTIONS AND INFESTATIONS,INFECTIONS AND INFESTATIONS,,MODERATE,N,N,N,N,N,N,N,N,NONE,,RECOVERED/RESOLVED,4.0,Y,,,,,,,,
CDISCPILOT01,701,01-701-1148,Xanomeline High Dose,81.0,57.0,<65,1.0,WHITE,1.0,M,Y,2013-08-23,2014-02-20,2013-12-15,,115.0,2013-12-17,117.0,3.0,DAY,FLANK PAIN,FLANK PAIN,,FLANK PAIN,,HLT_0484,,HLGT_0543,,MUSCULOSKELETAL AND CONNECTIVE TISSUE DISORDERS,MUSCULOSKELETAL AND CONNECTIVE TISSUE DISORDERS,,MODERATE,N,N,N,N,N,N,N,N,NONE,,RECOVERED/RESOLVED,5.0,Y,,Y,Y,,,,,
CDISCPILOT01,701,01-701-1148,Xanomeline High Dose,81.0,57.0,<65,1.0,WHITE,1.0,M,Y,2013-08-23,2014-02-20,2013-12-17,,117.0,2013-12-17,117.0,1.0,DAY,CALCULUS URETHRAL,URETHRAL CALCULUS,,CALCULUS URETHRAL,,HLT_0550,,HLGT_0414,,RENAL AND URINARY DISORDERS,RENAL AND URINARY DISORDERS,,MODERATE,N,N,N,N,N,N,N,N,NONE,,RECOVERED/RESOLVED,6.0,Y,,Y,Y,,,,,
CDISCPILOT01,701,01-701-1148,Xanomeline High Dose,81.0,57.0,<65,1.0,WHITE,1.0,M,Y,2013-08-23,2014-02-20,2014-01-03,,134.0,2014-01-03,134.0,1.0,DAY,EPISTAXIS,NOSE BLEED,,EPISTAXIS,,HLT_0386,,HLGT_0577,,"RESPIRATORY, THORACIC AND MEDIASTINAL DISORDERS","RESPIRATORY, THORACIC AND MEDIASTINAL DISORDERS",,MILD,N,N,N,N,N,N,N,N,NONE,,RECOVERED/RESOLVED,7.0,Y,,Y,Y,,,,,
CDISCPILOT01,701,01-701-1148,Xanomeline High Dose,81.0,57.0,<65,1.0,WHITE,1.0,M,Y,2013-08-23,2014-02-20,2012-02-01,D,-569.0,,,,,DYSPEPSIA,INDIGESTION,,DYSPEPSIA,,HLT_0244,,HLGT_0716,,GASTROINTESTINAL DISORDERS,GASTROINTESTINAL DISORDERS,,MODERATE,N,N,N,N,N,N,N,N,NONE,,NOT RECOVERED/NOT RESOLVED,8.0,,,,,,,,,
CDISCPILOT01,701,01-701-1148,Xanomeline High Dose,81.0,57.0,<65,1.0,WHITE,1.0,M,Y,2013-08-23,2014-02-20,2013-07-29,,-25.0,,,,,DEPRESSED MOOD,DEPRESSED MOOD,,DEPRESSED MOOD,,HLT_0784,,HLGT_0122,,PSYCHIATRIC DISORDERS,PSYCHIATRIC DISORDERS,,MODERATE,N,N,N,N,N,N,N,N,NONE,,NOT RECOVERED/NOT RESOLVED,9.0,,,,,,,,,
CDISCPILOT01,701,01-701-1148,Xanomeline High Dose,81.0,57.0,<65,1.0,WHITE,1.0,M,Y,2013-08-23,2014-02-20,2014-02-12,,174.0,,,,,ACTINIC KERATOSIS,ACTINIC KERATOSIS,,ACTINIC KERATOSIS,,HLT_0609,,HLGT_0490,,SKIN AND SUBCUTANEOUS TISSUE DISORDERS,SKIN AND SUBCUTANEOUS TISSUE DISORDERS,,MILD,N,N,N,N,N,N,N,N,NONE,,NOT RECOVERED/NOT RESOLVED,10.0,Y,,Y,Y,,,,DERMATOLOGIC EVENTS,
CDISCPILOT01,701,01-701-1153,Placebo,0.0,79.0,65-80,2.0,WHITE,1.0,F,Y,2013-09-23,2014-03-16,2013-10-13,,21.0,2013-11-06,45.0,25.0,DAY,INCREASED APPETITE,INCREASED APPETITE,,INCREASED APPETITE,,HLT_0566,,HLGT_0769,,METABOLISM AND NUTRITION DISORDERS,METABOLISM AND NUTRITION DISORDERS,,MILD,N,N,N,N,N,N,N,N,POSSIBLE,,NOT RECOVERED/NOT RESOLVED,1.0,Y,Y,Y,Y,,,,,
CDISCPILOT01,701,01-701-1153,Placebo,0.0,79.0,65-80,2.0,WHITE,1.0,F,Y,2013-09-23,2014-03-16,2013-10-13,,21.0,2013-11-06,45.0,25.0,DAY,INCREASED APPETITE,INCREASED APPETITE,,INCREASED APPETITE,,HLT_0566,,HLGT_0769,,METABOLISM AND NUTRITION DISORDERS,METABOLISM AND NUTRITION DISORDERS,,MILD,N,N,N,N,N,N,N,N,POSSIBLE,,RECOVERED/RESOLVED,2.0,Y,,,,,,,,
CDISCPILOT01,701,01-701-1180,Xanomeline High Dose,81.0,56.0,<65,1.0,WHITE,1.0,M,Y,2013-02-12,2013-03-18,2013-02-12,,1.0,2013-02-12,1.0,1.0,DAY,VOMITING,VOMITING,,VOMITING,,HLT_0016,,HLGT_0350,,GASTROINTESTINAL DISORDERS,GASTROINTESTINAL DISORDERS,,MILD,N,N,N,N,N,N,N,N,NONE,,NOT RECOVERED/NOT RESOLVED,1.0,Y,Y,Y,Y,,,,,
CDISCPILOT01,701,01-701-1180,Xanomeline High Dose,81.0,56.0,<65,1.0,WHITE,1.0,M,Y,2013-02-12,2013-03-18,2013-02-12,,1.0,2013-02-12,1.0,1.0,DAY,VOMITING,VOMITING,,VOMITING,,HLT_0016,,HLGT_0350,,GASTROINTESTINAL DISORDERS,GASTROINTESTINAL DISORDERS,,MILD,N,N,N,N,N,N,N,N,NONE,,RECOVERED/RESOLVED,2.0,Y,,,,,,,,
CDISCPILOT01,701,01-701-1180,Xanomeline High Dose,81.0,56.0,<65,1.0,WHITE,1.0,M,Y,2013-02-12,2013-03-18,2013-02-15,,4.0,2013-03-19,36.0,33.0,DAY,MICTURITION URGENCY,URINARY URGENCY,,MICTURITION URGENCY,,HLT_0294,,HLGT_0483,,RENAL AND URINARY DISORDERS,RENAL AND URINARY DISORDERS,,MILD,N,N,N,N,N,N,N,N,POSSIBLE,,NOT RECOVERED/NOT RESOLVED,3.0,Y,,Y,Y,,,,,
CDISCPILOT01,701,01-701-1180,Xanomeline High Dose,81.0,56.0,<65,1.0,WHITE,1.0,M,Y,2013-02-12,2013-03-18,,,,,,,,HEADACHE,HEADACHE,,HEADACHE,,HLT_0064,,HLGT_0344,,NERVOUS SYSTEM DISORDERS,NERVOUS SYSTEM DISORDERS,,MODERATE,N,N,N,N,N,N,N,N,NONE,,NOT RECOVERED/NOT RESOLVED,4.0,,,,,,,,,
CDISCPILOT01,701,01-701-1180,Xanomeline High Dose,81.0,56.0,<65,1.0,WHITE,1.0,M,Y,2013-02-12,2013-03-18,2013-03-06,,23.0,2013-03-07,24.0,2.0,DAY,NASOPHARYNGITIS,COLD,,NASOPHARYNGITIS,,HLT_0036,,HLGT_0709,,INFECTIONS AND INFESTATIONS,INFECTIONS AND INFESTATIONS,,MILD,N,N,N,N,N,N,N,N,NONE,,RECOVERED/RESOLVED,5.0,Y,,Y,Y,,,,,
CDISCPILOT01,701,01-701-1180,Xanomeline High Dose,81.0,56.0,<65,1.0,WHITE,1.0,M,Y,2013-02-12,2013-03-18,2013-02-15,,4.0,2013-03-19,36.0,33.0,DAY,MICTURITION URGENCY,URINARY URGENCY,,MICTURITION URGENCY,,HLT_0294,,HLGT_0483,,RENAL AND URINARY DISORDERS,RENAL AND URINARY DISORDERS,,MILD,N,N,N,N,N,N,N,N,POSSIBLE,,RECOVERED/RESOLVED,6.0,Y,,,,,,,,
CDISCPILOT01,701,01-701-1180,Xanomeline High Dose,81.0,56.0,<65,1.0,WHITE,1.0,M,Y,2013-02-12,2013-03-18,2013-03-19,,36.0,,,,,APPLICATION SITE VESICLES,APPLICATION SITE BLISTER,,APPLICATION SITE VESICLES,,HLT_0180,,HLGT_0576,,GENERAL DISORDERS AND ADMINISTRATION SITE CONDITIONS,GENERAL DISORDERS AND ADMINISTRATION SITE CONDITIONS,,MODERATE,N,N,N,N,N,N,N,N,POSSIBLE,,NOT RECOVERED/NOT RESOLVED,7.0,Y,,Y,Y,,,,DERMATOLOGIC EVENTS,Y
CDISCPILOT01,701,01-701-1180,Xanomeline High Dose,81.0,56.0,<65,1.0,WHITE,1.0,M,Y,2013-02-12,2013-03-18,2013-03-19,,36.0,,,,,APPLICATION SITE PRURITUS,APPLICATION SITE ITCHING,,APPLICATION SITE PRURITUS,,HLT_0317,,HLGT_0338,,GENERAL DISORDERS AND ADMINISTRATION SITE CONDITIONS,GENERAL DISORDERS AND ADMINISTRATION SITE CONDITIONS,,MODERATE,N,N,N,N,N,N,N,N,POSSIBLE,,NOT RECOVERED/NOT RESOLVED,8.0,Y,,,Y,,,,DERMATOLOGIC EVENTS,
CDISCPILOT01,701,01-701-1180,Xanomeline High Dose,81.0,56.0,<65,1.0,WHITE,1.0,M,Y,2013-02-12,2013-03-18,2013-03-19,,36.0,,,,,APPLICATION SITE ERYTHEMA,APPLICATION SITE ERYTHEMA,,APPLICATION SITE ERYTHEMA,,HLT_0617,,HLGT_0152,,GENERAL DISORDERS AND ADMINISTRATION SITE CONDITIONS,GENERAL DISORDERS AND ADMINISTRATION SITE CONDITIONS,,MODERATE,N,N,N,N,N,N,N,N,POSSIBLE,,NOT RECOVERED/NOT RESOLVED,9.0,Y,,,Y,,,,DERMATOLOGIC EVENTS,
CDISCPILOT01,701,01-701-1181,Xanomeline High Dose,81.0,79.0,65-80,2.0,WHITE,1.0,F,Y,2013-12-05,2013-12-09,2013-12-09,,5.0,2013-12-09,5.0,1.0,DAY,AGITATION,AGITATION,,AGITATION,,HLT_0140,,HLGT_0170,,PSYCHIATRIC DISORDERS,PSYCHIATRIC DISORDERS,,MODERATE,N,N,N,N,N,N,N,N,NONE,,RECOVERED/RESOLVED,1.0,Y,Y,Y,Y,,,,,
CDISCPILOT01,701,01-701-1188,Xanomeline Low Dose,54.0,71.0,65-80,2.0,WHITE,1.0,M,Y,2013-02-15,2013-03-24,2013-02-16,,2.0,,,,,ERYTHEMA,ERYTHEMA,,ERYTHEMA,,HLT_0284,,HLGT_0192,,SKIN AND SUBCUTANEOUS TISSUE DISORDERS,SKIN AND SUBCUTANEOUS TISSUE DISORDERS,,MILD,N,N,N,N,N,N,N,N,PROBABLE,,NOT RECOVERED/NOT RESOLVED,1.0,Y,Y,Y,Y,,,,DERMATOLOGIC EVENTS,Y
CDISCPILOT01,701,01-701-1188,Xanomeline Low Dose,54.0,71.0,65-80,2.0,WHITE,1.0,M,Y,2013-02-15,2013-03-24,2013-02-16,,2.0,,,,,PRURITUS,ITCHING,,PRURITUS,,HLT_0778,,HLGT_0695,,SKIN AND SUBCUTANEOUS TISSUE DISORDERS,SKIN AND SUBCUTANEOUS TISSUE DISORDERS,,MILD,N,N,N,N,N,N,N,N,PROBABLE,,NOT RECOVERED/NOT RESOLVED,2.0,Y,,,Y,,,,DERMATOLOGIC EVENTS,
CDISCPILOT01,701,01-701-1188,Xanomeline Low Dose,54.0,71.0,65-80,2.0,WHITE,1.0,M,Y,2013-02-15,2013-03-24,2013-02-16,,2.0,,,,,ERYTHEMA,ERYTHEMA,,ERYTHEMA,,HLT_0284,,HLGT_0192,,SKIN AND SUBCUTANEOUS TISSUE DISORDERS,SKIN AND SUBCUTANEOUS TISSUE DISORDERS,,MODERATE,N,N,N,N,N,N,N,N,PROBABLE,,NOT RECOVERED/NOT RESOLVED,3.0,Y,,,,,,,DERMATOLOGIC EVENTS,
CDISCPILOT01,701,01-701-1188,Xanomeline Low Dose,54.0,71.0,65-80,2.0,WHITE,1.0,M,Y,2013-02-15,2013-03-24,2013-02-16,,2.0,,,,,PRURITUS,ITCHING,,PRURITUS,,HLT_0778,,HLGT_0695,,SKIN AND SUBCUTANEOUS TISSUE DISORDERS,SKIN AND SUBCUTANEOUS TISSUE DISORDERS,,MODERATE,N,N,N,N,N,N,N,N,PROBABLE,,NOT RECOVERED/NOT RESOLVED,4.0,Y,,,,,,,DERMATOLOGIC EVENTS,
CDISCPILOT01,701,01-701-1188,Xanomeline Low Dose,54.0,71.0,65-80,2.0,WHITE,1.0,M,Y,2013-02-15,2013-03-24,2013-03-04,,18.0,,,,,URTICARIA,WELTS,,URTICARIA,,HLT_0420,,HLGT_0705,,SKIN AND SUBCUTANEOUS TISSUE DISORDERS,SKIN AND SUBCUTANEOUS TISSUE DISORDERS,,MILD,N,N,N,N,N,N,N,N,PROBABLE,,NOT RECOVERED/NOT RESOLVED,5.0,Y,,,Y,,,,DERMATOLOGIC EVENTS,
CDISCPILOT01,701,01-701-1188,Xanomeline Low Dose,54.0,71.0,65-80,2.0,WHITE,1.0,M,Y,2013-02-15,2013-03-24,2013-03-04,,18.0,,,,,URTICARIA,WELTS,,URTICARIA,,HLT_0420,,HLGT_0705,,SKIN AND SUBCUTANEOUS TISSUE DISORDERS,SKIN AND SUBCUTANEOUS TISSUE DISORDERS,,MODERATE,N,N,N,N,N,N,N,N,PROBABLE,,NOT RECOVERED/NOT RESOLVED,6.0,Y,,,,,,,DERMATOLOGIC EVENTS,
CDISCPILOT01,701,01-701-1188,Xanomeline Low Dose,54.0,71.0,65-80,2.0,WHITE,1.0,M,Y,2013-02-15,2013-03-24,2013-03-21,,35.0,,,,,APPLICATION SITE URTICARIA,APPLICATION SITE URTICARIA,,APPLICATION SITE URTICARIA,,HLT_0196,,HLGT_0233,,GENERAL DISORDERS AND ADMINISTRATION SITE CONDITIONS,GENERAL DISORDERS AND ADMINISTRATION SITE CONDITIONS,,MILD,N,N,N,N,N,N,N,N,PROBABLE,,NOT RECOVERED/NOT RESOLVED,7.0,Y,,Y,Y,,,,DERMATOLOGIC EVENTS,
CDISCPILOT01,701,01-701-1188,Xanomeline Low Dose,54.0,71.0,65-80,2.0,WHITE,1.0,M,Y,2013-02-15,2013-03-24,2013-03-21,,35.0,,,,,URTICARIA,WELTS,,URTICARIA,,HLT_0420,,HLGT_0705,,SKIN AND SUBCUTANEOUS TISSUE DISORDERS,SKIN AND SUBCUTANEOUS TISSUE DISORDERS,,MILD,N,N,N,N,N,N,N,N,PROBABLE,,NOT RECOVERED/NOT RESOLVED,8.0,Y,,,,,,,DERMATOLOGIC EVENTS,
CDISCPILOT01,701,01-701-1192,Xanomeline Low Dose,54.0,80.0,65-80,2.0,WHITE,1.0,F,Y,2012-07-22,2013-01-20,2012-08-03,,13.0,2012-08-03,13.0,1.0,DAY,NASAL MUCOSA BIOPSY,NASAL MUCOSA BIOPSY,,NASAL MUCOSA BIOPSY,,HLT_0680,,HLGT_0396,,INVESTIGATIONS,INVESTIGATIONS,,MILD,N,N,N,N,N,N,N,N,NONE,,RECOVERED/RESOLVED,1.0,Y,Y,Y,Y,,,,,
CDISCPILOT01,701,01-701-1192,Xanomeline Low Dose,54.0,80.0,65-80,2.0,WHITE,1.0,F,Y,2012-07-22,2013-01-20,2012-08-07,,17.0,2012-09-14,55.0,39.0,DAY,SECRETION DISCHARGE,SECRETION DISCHARGE,,SECRETION DISCHARGE,,HLT_0683,,HLGT_0575,,GENERAL DISORDERS AND ADMINISTRATION SITE CONDITIONS,GENERAL DISORDERS AND ADMINISTRATION SITE CONDITIONS,,MILD,N,N,N,N,N,N,N,N,NONE,,NOT RECOVERED/NOT RESOLVED,2.0,Y,,Y,Y,,,,,
CDISCPILOT01,701,01-701-1192,Xanomeline Low Dose,54.0,80.0,65-80,2.0,WHITE,1.0,F,Y,2012-07-22,2013-01-20,2012-08-07,,17.0,2012-09-14,55.0,39.0,DAY,ERYTHEMA,ERYTHEMA FACIAL,,ERYTHEMA,,HLT_0284,,HLGT_0192,,SKIN AND SUBCUTANEOUS TISSUE DISORDERS,SKIN AND SUBCUTANEOUS TISSUE DISORDERS,,MILD,N,N,N,N,N,N,N,N,NONE,,NOT RECOVERED/NOT RESOLVED,3.0,Y,,Y,Y,,,,DERMATOLOGIC EVENTS,Y
CDISCPILOT01,701,01-701-1192,Xanomeline Low Dose,54.0,80.0,65-80,2.0,WHITE,1.0,F,Y,2012-07-22,2013-01-20,2010-06-01,D,-782.0,,,,,COUGH,COUGH,,COUGH,,HLT_0701,,HLGT_0280,,"RESPIRATORY, THORACIC AND MEDIASTINAL DISORDERS","RESPIRATORY, THORACIC AND MEDIASTINAL DISORDERS",,MODERATE,N,N,N,N,N,N,N,N,NONE,,NOT RECOVERED/NOT RESOLVED,4.0,,,,,,,,,
CDISCPILOT01,701,01-701-1192,Xanomeline Low Dose,54.0,80.0,65-80,2.0,WHITE,1.0,F,Y,2012-07-22,2013-01-20,2012-08-07,,17.0,2012-09-14,55.0,39.0,DAY,SECRETION DISCHARGE,SECRETION DISCHARGE,,SECRETION DISCHARGE,,HLT_0683,,HLGT_0575,,GENERAL DISORDERS AND ADMINISTRATION SITE CONDITIONS,GENERAL DISORDERS AND ADMINISTRATION SITE CONDITIONS,,MILD,N,N,N,N,N,N,N,N,NONE,,RECOVERED/RESOLVED,5.0,Y,,,,,,,,
CDISCPILOT01,701,01-701-1192,Xanomeline Low Dose,54.0,80.0,65-80,2.0,WHITE,1.0,F,Y,2012-07-22,2013-01-20,2012-08-07,,17.0,2012-09-14,55.0,39.0,DAY,ERYTHEMA,ERYTHEMA FACIAL,,ERYTHEMA,,HLT_0284,,HLGT_0192,,SKIN AND SUBCUTANEOUS TISSUE DISORDERS,SKIN AND SUBCUTANEOUS TISSUE DISORDERS,,MILD,N,N,N,N,N,N,N,N,NONE,,RECOVERED/RESOLVED,6.0,Y,,,,,,,DERMATOLOGIC EVENTS,
CDISCPILOT01,701,01-701-1192,Xanomeline Low Dose,54.0,80.0,65-80,2.0,WHITE,1.0,F,Y,2012-07-22,2013-01-20,2012-09-07,,48.0,2012-10-06,77.0,30.0,DAY,PNEUMONIA,PNEUMONIA,,PNEUMONIA,,HLT_0251,,HLGT_0671,,INFECTIONS AND INFESTATIONS,INFECTIONS AND INFESTATIONS,,MODERATE,N,N,N,N,N,Y,N,N,NONE,,NOT RECOVERED/NOT RESOLVED,7.0,Y,,Y,Y,,,,,
CDISCPILOT01,701,01-701-1192,Xanomeline Low Dose,54.0,80.0,65-80,2.0,WHITE,1.0,F,Y,2012-07-22,2013-01-20,2012-09-07,,48.0,2012-09-30,71.0,24.0,DAY,MUSCULAR WEAKNESS,MUSCULAR WEAKNESS,,MUSCULAR WEAKNESS,,HLT_0444,,HLGT_0211,,MUSCULOSKELETAL AND CONNECTIVE TISSUE DISORDERS,MUSCULOSKELETAL AND CONNECTIVE TISSUE DISORDERS,,MODERATE,N,N,N,N,N,N,N,N,NONE,,NOT RECOVERED/NOT RESOLVED,8.0,Y,,Y,Y,,,,,
CDISCPILOT01,701,01-701-1192,Xanomeline Low Dose,54.0,80.0,65-80,2.0,WHITE,1.0,F,Y,2012-07-22,2013-01-20,2010-06-01,D,-782.0,,,,,COUGH,COUGH,,COUGH,,HLT_0701,,HLGT_0280,,"RESPIRATORY, THORACIC AND MEDIASTINAL DISORDERS","RESPIRATORY, THORACIC AND MEDIASTINAL DISORDERS",,MILD,N,N,N,N,N,N,N,N,NONE,,NOT RECOVERED/NOT RESOLVED,9.0,,,,,,,,,
CDISCPILOT01,701,01-701-1192,Xanomeline Low Dose,54.0,80.0,65-80,2.0,WHITE,1.0,F,Y,2012-07-22,2013-01-20,2012-09-07,,48.0,2012-10-06,77.0,30.0,DAY,PNEUMONIA,PNEUMONIA,,PNEUMONIA,,HLT_0251,,HLGT_0671,,INFECTIONS AND INFESTATIONS,INFECTIONS AND INFESTATIONS,,MODERATE,N,N,N,N,N,Y,N,N,NONE,,RECOVERED/RESOLVED,10.0,Y,,,,,,,,
CDISCPILOT01,701,01-701-1192,Xanomeline Low Dose,54.0,80.0,65-80,2.0,WHITE,1.0,F,Y,2012-07-22,2013-01-20,2012-09-07,,48.0,2012-09-30,71.0,24.0,DAY,MUSCULAR WEAKNESS,MUSCULAR WEAKNESS,,MUSCULAR WEAKNESS,,HLT_0444,,HLGT_0211,,MUSCULOSKELETAL AND CONNECTIVE TISSUE DISORDERS,MUSCULOSKELETAL AND CONNECTIVE TISSUE DISORDERS,,MODERATE,N,N,N,N,N,N,N,N,NONE,,RECOVERED/RESOLVED,11.0,Y,,,,,,,,
CDISCPILOT01,701,01-701-1192,Xanomeline Low Dose,54.0,80.0,65-80,2.0,WHITE,1.0,F,Y,2012-07-22,2013-01-20,2012-12-05,,137.0,2012-12-16,148.0,12.0,DAY,APPLICATION SITE IRRITATION,APPLICATION SITE BURNING,,APPLICATION SITE IRRITATION,,HLT_0061,,HLGT_0346,,GENERAL DISORDERS AND ADMINISTRATION SITE CONDITIONS,GENERAL DISORDERS AND ADMINISTRATION SITE CONDITIONS,,MILD,N,N,N,N,N,N,N,N,PROBABLE,,NOT RECOVERED/NOT RESOLVED,12.0,Y,,,Y,,,,DERMATOLOGIC EVENTS,
CDISCPILOT01,701,01-701-1192,Xanomeline Low Dose,54.0,80.0,65-80,2.0,WHITE,1.0,F,Y,2012-07-22,2013-01-20,2012-12-05,,137.0,,,,,APPLICATION SITE ERYTHEMA,APPLICATION SITE REDNESS,,APPLICATION SITE ERYTHEMA,,HLT_0617,,HLGT_0152,,GENERAL DISORDERS AND ADMINISTRATION SITE CONDITIONS,GENERAL DISORDERS AND ADMINISTRATION SITE CONDITIONS,,MILD,N,N,N,N,N,N,N,N,PROBABLE,,NOT RECOVERED/NOT RESOLVED,13.0,Y,,,Y,,,,DERMATOLOGIC EVENTS,
CDISCPILOT01,701,01-701-1192,Xanomeline Low Dose,54.0,80.0,65-80,2.0,WHITE,1.0,F,Y,2012-07-22,2013-01-20,2012-12-05,,137.0,,,,,APPLICATION SITE PRURITUS,APPLICATION SITE ITCHING,,APPLICATION SITE PRURITUS,,HLT_0317,,HLGT_0338,,GENERAL DISORDERS AND ADMINISTRATION SITE CONDITIONS,GENERAL DISORDERS AND ADMINISTRATION SITE CONDITIONS,,MILD,N,N,N,N,N,N,N,N,PROBABLE,,NOT RECOVERED/NOT RESOLVED,14.0,Y,,,Y,,,,DERMATOLOGIC EVENTS,
CDISCPILOT01,701,01-701-1192,Xanomeline Low Dose,54.0,80.0,65-80,2.0,WHITE,1.0,F,Y,2012-07-22,2013-01-20,2012-12-05,,137.0,2012-12-16,148.0,12.0,DAY,APPLICATION SITE IRRITATION,APPLICATION SITE BURNING,,APPLICATION SITE IRRITATION,,HLT_0061,,HLGT_0346,,GENERAL DISORDERS AND ADMINISTRATION SITE CONDITIONS,GENERAL DISORDERS AND ADMINISTRATION SITE CONDITIONS,,MILD,N,N,N,N,N,N,N,N,PROBABLE,,RECOVERED/RESOLVED,15.0,Y,,,,,,,DERMATOLOGIC EVENTS,
CDISCPILOT01,701,01-701-1203,Placebo,0.0,81.0,>80,3.0,BLACK OR AFRICAN AMERICAN,2.0,F,Y,2013-02-02,2013-08-03,2013-03-21,,48.0,2013-03-21,48.0,1.0,DAY,EYE LASER SURGERY,EYE LASER SURGERY,,EYE LASER SURGERY,,HLT_0355,,HLGT_0189,,SURGICAL AND MEDICAL PROCEDURES,SURGICAL AND MEDICAL PROCEDURES,,MILD,N,N,N,N,N,N,N,N,NONE,,RECOVERED/RESOLVED,1.0,Y,Y,Y,Y,,,,,
CDISCPILOT01,701,01-701-1211,Xanomeline Low Dose,54.0,76.0,65-80,2.0,WHITE,1.0,F,Y,2012-11-15,2013-01-12,2012-11-16,,2.0,,,,,APPLICATION SITE PRURITUS,APPLICATION SITE ITCHING,,APPLICATION SITE PRURITUS,,HLT_0317,,HLGT_0338,,GENERAL DISORDERS AND ADMINISTRATION SITE CONDITIONS,GENERAL DISORDERS AND ADMINISTRATION SITE CONDITIONS,,MILD,N,N,N,N,N,N,N,N,POSSIBLE,,NOT RECOVERED/NOT RESOLVED,1.0,Y,Y,Y,Y,,,,DERMATOLOGIC EVENTS,Y
CDISCPILOT01,701,01-701-1211,Xanomeline Low Dose,54.0,76.0,65-80,2.0,WHITE,1.0,F,Y,2012-11-15,2013-01-12,2012-11-21,,7.0,2012-11-21,7.0,1.0,DAY,JOINT DISLOCATION,SHOULDER DISLOCATION,,JOINT DISLOCATION,,HLT_0035,,HLGT_0227,,"INJURY, POISONING AND PROCEDURAL COMPLICATIONS","INJURY, POISONING AND PROCEDURAL COMPLICATIONS",,MODERATE,N,N,N,N,N,N,N,N,NONE,,RECOVERED/RESOLVED,2.0,Y,,Y,Y,,,,,
CDISCPILOT01,701,01-701-1211,Xanomeline Low Dose,54.0,76.0,65-80,2.0,WHITE,1.0,F,Y,2012-11-15,2013-01-12,2012-11-21,,7.0,,,,,SHOULDER PAIN,SHOULDER PAIN,,SHOULDER PAIN,,HLT_0527,,HLGT_0288,,MUSCULOSKELETAL AND CONNECTIVE TISSUE DISORDERS,MUSCULOSKELETAL AND CONNECTIVE TISSUE DISORDERS,,MILD,N,N,N,N,N,N,N,N,NONE,,NOT RECOVERED/NOT RESOLVED,3.0,Y,,Y,Y,,,,,
CDISCPILOT01,701,01-701-1211,Xanomeline Low Dose,54.0,76.0,65-80,2.0,WHITE,1.0,F,Y,2012-11-15,2013-01-12,2012-11-22,,8.0,,,,,INCONTINENCE,INCONTINENCE,,INCONTINENCE,,HLT_0560,,HLGT_0503,,RENAL AND URINARY DISORDERS,RENAL AND URINARY DISORDERS,,MILD,N,N,N,N,N,N,N,N,NONE,,NOT RECOVERED/NOT RESOLVED,4.0,Y,,Y,Y,,,,,
CDISCPILOT01,701,01-701-1211,Xanomeline Low Dose,54.0,76.0,65-80,2.0,WHITE,1.0,F,Y,2012-11-15,2013-01-12,2012-11-29,,15.0,,,,,APPLICATION SITE ERYTHEMA,APPLICATION SITE REDNESS,,APPLICATION SITE ERYTHEMA,,HLT_0617,,HLGT_0152,,GENERAL DISORDERS AND ADMINISTRATION SITE CONDITIONS,GENERAL DISORDERS AND ADMINISTRATION SITE CONDITIONS,,MILD,N,N,N,N,N,N,N,N,POSSIBLE,,NOT RECOVERED/NOT RESOLVED,5.0,Y,,,Y,,,,DERMATOLOGIC EVENTS,
CDISCPILOT01,701,01-701-1211,Xanomeline Low Dose,54.0,76.0,65-80,2.0,WHITE,1.0,F,Y,2012-11-15,2013-01-12,2012-12-09,,25.0,,,,,SKIN LACERATION,LACERATION OF FACE,,SKIN LACERATION,,HLT_0075,,HLGT_0118,,"INJURY, POISONING AND PROCEDURAL COMPLICATIONS","INJURY, POISONING AND PROCEDURAL COMPLICATIONS",,MILD,N,N,N,N,N,N,N,N,NONE,,NOT RECOVERED/NOT RESOLVED,6.0,Y,,,Y,,,,,
CDISCPILOT01,701,01-701-1211,Xanomeline Low Dose,54.0,76.0,65-80,2.0,WHITE,1.0,F,Y,2012-11-15,2013-01-12,2013-01-11,,58.0,,,,,CONFUSIONAL STATE,CONFUSION,,CONFUSIONAL STATE,,HLT_0642,,HLGT_0329,,PSYCHIATRIC DISORDERS,PSYCHIATRIC DISORDERS,,MODERATE,N,N,N,N,N,N,N,N,NONE,,NOT RECOVERED/NOT RESOLVED,7.0,Y,,Y,Y,,,,,
CDISCPILOT01,701,01-701-1211,Xanomeline Low Dose,54.0,76.0,65-80,2.0,WHITE,1.0,F,Y,2012-11-15,2013-01-12,2013-01-11,,58.0,,,,,DYSPNOEA,SHORTNESS OF BREATH,,DYSPNOEA,,HLT_0296,,HLGT_0255,,"RESPIRATORY, THORACIC AND MEDIASTINAL DISORDERS","RESPIRATORY, THORACIC AND MEDIASTINAL DISORDERS",,MODERATE,N,N,N,N,N,N,N,N,NONE,,NOT RECOVERED/NOT RESOLVED,8.0,Y,,Y,Y,,,,,
CDISCPILOT01,701,01-701-1211,Xanomeline Low Dose,54.0,76.0,65-80,2.0,WHITE,1.0,F,Y,2012-11-15,2013-01-12,2013-01-14,,61.0,2013-01-14,61.0,1.0,DAY,SUDDEN DEATH,SUDDEN DEATH,,SUDDEN DEATH,,HLT_0142,,HLGT_0272,,GENERAL DISORDERS AND ADMINISTRATION SITE CONDITIONS,GENERAL DISORDERS AND ADMINISTRATION SITE CONDITIONS,,SEVERE,N,N,N,N,Y,N,Y,N,NONE,,FATAL,9.0,Y,,,Y,,,,,
CDISCPILOT01,701,01-701-1239,Xanomeline High Dose,81.0,56.0,<65,1.0,WHITE,1.0,M,Y,2014-01-11,2014-07-10,2014-01-12,,2.0,,,,,ERYTHEMA,ERYTHEMA,,ERYTHEMA,,HLT_0284,,HLGT_0192,,SKIN AND SUBCUTANEOUS TISSUE DISORDERS,SKIN AND SUBCUTANEOUS TISSUE DISORDERS,,MILD,N,N,N,N,N,N,N,N,POSSIBLE,,NOT RECOVERED/NOT RESOLVED,1.0,Y,Y,Y,Y,,,,DERMATOLOGIC EVENTS,Y
CDISCPILOT01,701,01-701-1239,Xanomeline High Dose,81.0,56.0,<65,1.0,WHITE,1.0,M,Y,2014-01-11,2014-07-10,2014-01-12,,2.0,,,,,SKIN ODOUR ABNORMAL,SKIN ODOR ABNORMAL,,SKIN ODOUR ABNORMAL,,HLT_0510,,HLGT_0184,,SKIN AND SUBCUTANEOUS TISSUE DISORDERS,SKIN AND SUBCUTANEOUS TISSUE DISORDERS,,MILD,N,N,N,N,N,N,N,N,REMOTE,,NOT RECOVERED/NOT RESOLVED,2.0,Y,,,Y,,,,DERMATOLOGIC EVENTS,
CDISCPILOT01,701,01-701-1239,Xanomeline High Dose,81.0,56.0,<65,1.0,WHITE,1.0,M,Y,2014-01-11,2014-07-10,2014-01-13,,3.0,,,,,PRURITUS,ITCHING,,PRURITUS,,HLT_0778,,HLGT_0695,,SKIN AND SUBCUTANEOUS TISSUE DISORDERS,SKIN AND SUBCUTANEOUS TISSUE DISORDERS,,MILD,N,N,N,N,N,N,N,N,POSSIBLE,,NOT RECOVERED/NOT RESOLVED,3.0,Y,,,Y,,,,DERMATOLOGIC EVENTS,
CDISCPILOT01,701,01-701-1239,Xanomeline High Dose,81.0,56.0,<65,1.0,WHITE,1.0,M,Y,2014-01-11,2014-07-10,2014-01-20,,10.0,2014-02-08,29.0,20.0,DAY,APPLICATION SITE IRRITATION,APPLICATION SITE IRRITATION,,APPLICATION SITE IRRITATION,,HLT_0061,,HLGT_0346,,GENERAL DISORDERS AND ADMINISTRATION SITE CONDITIONS,GENERAL DISORDERS AND ADMINISTRATION SITE CONDITIONS,,MILD,N,N,N,N,N,N,N,N,PROBABLE,,NOT RECOVERED/NOT RESOLVED,4.0,Y,,Y,Y,,,,DERMATOLOGIC EVENTS,
CDISCPILOT01,701,01-701-1239,Xanomeline High Dose,81.0,56.0,<65,1.0,WHITE,1.0,M,Y,2014-01-11,2014-07-10,2014-01-20,,10.0,2014-02-08,29.0,20.0,DAY,APPLICATION SITE IRRITATION,APPLICATION SITE IRRITATION,,APPLICATION SITE IRRITATION,,HLT_0061,,HLGT_0346,,GENERAL DISORDERS AND ADMINISTRATION SITE CONDITIONS,GENERAL DISORDERS AND ADMINISTRATION SITE CONDITIONS,,MILD,N,N,N,N,N,N,N,N,PROBABLE,,RECOVERED/RESOLVED,5.0,Y,,,,,,,DERMATOLOGIC EVENTS,
CDISCPILOT01,701,01-701-1239,Xanomeline High Dose,81.0,56.0,<65,1.0,WHITE,1.0,M,Y,2014-01-11,2014-07-10,2014-01-12,,2.0,,,,,ERYTHEMA,ERYTHEMA,,ERYTHEMA,,HLT_0284,,HLGT_0192,,SKIN AND SUBCUTANEOUS TISSUE DISORDERS,SKIN AND SUBCUTANEOUS TISSUE DISORDERS,,MODERATE,N,N,N,N,N,N,N,N,POSSIBLE,,NOT RECOVERED/NOT RESOLVED,6.0,Y,,,,,,,DERMATOLOGIC EVENTS,
CDISCPILOT01,701,01-701-1239,Xanomeline High Dose,81.0,56.0,<65,1.0,WHITE,1.0,M,Y,2014-01-11,2014-07-10,2014-02-20,,41.0,2014-03-12,61.0,21.0,DAY,UPPER RESPIRATORY TRACT INFECTION,UPPER RESPIRATORY INFECTION,,UPPER RESPIRATORY TRACT INFECTION,,HLT_0520,,HLGT_0489,,INFECTIONS AND INFESTATIONS,INFECTIONS AND INFESTATIONS,,MILD,N,N,N,N,N,N,N,N,NONE,,NOT RECOVERED/NOT RESOLVED,7.0,Y,,Y,Y,,,,,
CDISCPILOT01,701,01-701-1239,Xanomeline High Dose,81.0,56.0,<65,1.0,WHITE,1.0,M,Y,2014-01-11,2014-07-10,2014-02-20,,41.0,2014-03-12,61.0,21.0,DAY,UPPER RESPIRATORY TRACT INFECTION,UPPER RESPIRATORY INFECTION,,UPPER RESPIRATORY TRACT INFECTION,,HLT_0520,,HLGT_0489,,INFECTIONS AND INFESTATIONS,INFECTIONS AND INFESTATIONS,,MILD,N,N,N,N,N,N,N,N,NONE,,RECOVERED/RESOLVED,8.0,Y,,,,,,,,
CDISCPILOT01,701,01-701-1239,Xanomeline High Dose,81.0,56.0,<65,1.0,WHITE,1.0,M,Y,2014-01-11,2014-07-10,2014-03-01,D,50.0,,,,,FATIGUE,FATIGUE,,FATIGUE,,HLT_0043,,HLGT_0181,,GENERAL DISORDERS AND ADMINISTRATION SITE CONDITIONS,GENERAL DISORDERS AND ADMINISTRATION SITE CONDITIONS,,MILD,N,N,N,N,N,N,N,N,REMOTE,,NOT RECOVERED/NOT RESOLVED,9.0,Y,,,Y,,,,,
CDISCPILOT01,701,01-701-1239,Xanomeline High Dose,81.0,56.0,<65,1.0,WHITE,1.0,M,Y,2014-01-11,2014-07-10,2014-04-01,D,81.0,,,,,HORDEOLUM,STYE,,HORDEOLUM,,HLT_0604,,HLGT_0290,,INFECTIONS AND INFESTATIONS,INFECTIONS AND INFESTATIONS,,MILD,N,N,N,N,N,N,N,N,NONE,,NOT RECOVERED/NOT RESOLVED,10.0,Y,,,Y,,,,,
CDISCPILOT01,701,01-701-1275,Xanomeline High Dose,81.0,61.0,<65,1.0,AMERICAN INDIAN OR ALASKA NATIVE,6.0,M,Y,2014-02-07,2014-05-31,2014-02-13,,7.0,2014-06-03,117.0,111.0,DAY,NAUSEA,NAUSEA,,NAUSEA,,HLT_0742,,HLGT_0326,,GASTROINTESTINAL DISORDERS,GASTROINTESTINAL DISORDERS,,MILD,N,N,N,N,N,N,N,N,POSSIBLE,,NOT RECOVERED/NOT RESOLVED,1.0,Y,Y,Y,Y,,,,,
CDISCPILOT01,701,01-701-1275,Xanomeline High Dose,81.0,61.0,<65,1.0,AMERICAN INDIAN OR ALASKA NATIVE,6.0,M,Y,2014-02-07,2014-05-31,2014-02-23,,17.0,2014-02-23,17.0,1.0,DAY,VOMITING,VOMITING,,VOMITING,,HLT_0016,,HLGT_0350,,GASTROINTESTINAL DISORDERS,GASTROINTESTINAL DISORDERS,,MILD,N,N,N,N,N,N,N,N,POSSIBLE,,RECOVERED/RESOLVED,2.0,Y,,,Y,,,,,
CDISCPILOT01,701,01-701-1275,Xanomeline High Dose,81.0,61.0,<65,1.0,AMERICAN INDIAN OR ALASKA NATIVE,6.0,M,Y,2014-02-07,2014-05-31,2014-02-24,,18.0,2014-06-12,126.0,109.0,DAY,ERYTHEMA,ERYTHEMA,,ERYTHEMA,,HLT_0284,,HLGT_0192,,SKIN AND SUBCUTANEOUS TISSUE DISORDERS,SKIN AND SUBCUTANEOUS TISSUE DISORDERS,,MILD,N,N,N,N,N,N,N,N,POSSIBLE,,NOT RECOVERED/NOT RESOLVED,3.0,Y,,Y,Y,,,,DERMATOLOGIC EVENTS,Y
CDISCPILOT01,701,01-701-1275,Xanomeline High Dose,81.0,61.0,<65,1.0,AMERICAN INDIAN OR ALASKA NATIVE,6.0,M,Y,2014-02-07,2014-05-31,2014-02-24,,18.0,2014-06-03,117.0,100.0,DAY,SALIVARY HYPERSECRETION,HYPERSALIVATION,,SALIVARY HYPERSECRETION,,HLT_0374,,HLGT_0488,,GASTROINTESTINAL DISORDERS,GASTROINTESTINAL DISORDERS,,MILD,N,N,N,N,N,N,N,N,POSSIBLE,,NOT RECOVERED/NOT RESOLVED,4.0,Y,,,Y,,,,,
CDISCPILOT01,701,01-701-1275,Xanomeline High Dose,81.0,61.0,<65,1.0,AMERICAN INDIAN OR ALASKA NATIVE,6.0,M,Y,2014-02-07,2014-05-31,2014-02-24,,18.0,2014-06-03,117.0,100.0,DAY,PAROSMIA,STRANGE SMELL SENSATION,,PAROSMIA,,HLT_0258,,HLGT_0471,,NERVOUS SYSTEM DISORDERS,NERVOUS SYSTEM DISORDERS,,MILD,N,N,N,N,N,N,N,N,POSSIBLE,,NOT RECOVERED/NOT RESOLVED,5.0,Y,,Y,Y,,,,,
CDISCPILOT01,701,01-701-1275,Xanomeline High Dose,81.0,61.0,<65,1.0,AMERICAN INDIAN OR ALASKA NATIVE,6.0,M,Y,2014-02-07,2014-05-31,2014-02-24,,18.0,2014-06-12,126.0,109.0,DAY,PRURITUS,ITCHING,,PRURITUS,,HLT_0778,,HLGT_0695,,SKIN AND SUBCUTANEOUS TISSUE DISORDERS,SKIN AND SUBCUTANEOUS TISSUE DISORDERS,,MILD,N,N,N,N,N,N,N,N,POSSIBLE,,NOT RECOVERED/NOT RESOLVED,6.0,Y,,,Y,,,,DERMATOLOGIC EVENTS,
CDISCPILOT01,701,01-701-1275,Xanomeline High Dose,81.0,61.0,<65,1.0,AMERICAN INDIAN OR ALASKA NATIVE,6.0,M,Y,2014-02-07,2014-05-31,2014-03-12,,34.0,2014-03-27,49.0,16.0,DAY,COUGH,COUGH,,COUGH,,HLT_0701,,HLGT_0280,,"RESPIRATORY, THORACIC AND MEDIASTINAL DISORDERS","RESPIRATORY, THORACIC AND MEDIASTINAL DISORDERS",,MILD,N,N,N,N,N,N,N,N,NONE,,NOT RECOVERED/NOT RESOLVED,7.0,Y,,Y,Y,,,,,
CDISCPILOT01,701,01-701-1275,Xanomeline High Dose,81.0,61.0,<65,1.0,AMERICAN INDIAN OR ALASKA NATIVE,6.0,M,Y,2014-02-07,2014-05-31,2014-03-12,,34.0,2014-03-27,49.0,16.0,DAY,NASAL CONGESTION,NASAL CONGESTION,,NASAL CONGESTION,,HLT_0118,,HLGT_0549,,"RESPIRATORY, THORACIC AND MEDIASTINAL DISORDERS","RESPIRATORY, THORACIC AND MEDIASTINAL DISORDERS",,MILD,N,N,N,N,N,N,N,N,NONE,,NOT RECOVERED/NOT RESOLVED,8.0,Y,,,Y,,,,,
CDISCPILOT01,701,01-701-1275,Xanomeline High Dose,81.0,61.0,<65,1.0,AMERICAN INDIAN OR ALASKA NATIVE,6.0,M,Y,2014-02-07,2014-05-31,2014-03-12,,34.0,2014-03-27,49.0,16.0,DAY,COUGH,COUGH,,COUGH,,HLT_0701,,HLGT_0280,,"RESPIRATORY, THORACIC AND MEDIASTINAL DISORDERS","RESPIRATORY, THORACIC AND MEDIASTINAL DISORDERS",,MILD,N,N,N,N,N,N,N,N,NONE,,RECOVERED/RESOLVED,9.0,Y,,,,,,,,
CDISCPILOT01,701,01-701-1275,Xanomeline High Dose,81.0,61.0,<65,1.0,AMERICAN INDIAN OR ALASKA NATIVE,6.0,M,Y,2014-02-07,2014-05-31,2014-03-12,,34.0,2014-03-27,49.0,16.0,DAY,NASAL CONGESTION,NASAL CONGESTION,,NASAL CONGESTION,,HLT_0118,,HLGT_0549,,"RESPIRATORY, THORACIC AND MEDIASTINAL DISORDERS","RESPIRATORY, THORACIC AND MEDIASTINAL DISORDERS",,MILD,N,N,N,N,N,N,N,N,NONE,,RECOVERED/RESOLVED,10.0,Y,,,,,,,,
CDISCPILOT01,701,01-701-1275,Xanomeline High Dose,81.0,61.0,<65,1.0,AMERICAN INDIAN OR ALASKA NATIVE,6.0,M,Y,2014-02-07,2014-05-31,2014-02-13,,7.0,2014-06-03,117.0,111.0,DAY,NAUSEA,NAUSEA,,NAUSEA,,HLT_0742,,HLGT_0326,,GASTROINTESTINAL DISORDERS,GASTROINTESTINAL DISORDERS,,MILD,N,N,N,N,N,N,N,N,POSSIBLE,,RECOVERED/RESOLVED,11.0,Y,,,,,,,,
CDISCPILOT01,701,01-701-1275,Xanomeline High Dose,81.0,61.0,<65,1.0,AMERICAN INDIAN OR ALASKA NATIVE,6.0,M,Y,2014-02-07,2014-05-31,2014-02-24,,18.0,2014-06-12,126.0,109.0,DAY,ERYTHEMA,ERYTHEMA,,ERYTHEMA,,HLT_0284,,HLGT_0192,,SKIN AND SUBCUTANEOUS TISSUE DISORDERS,SKIN AND SUBCUTANEOUS TISSUE DISORDERS,,MILD,N,N,N,N,N,N,N,N,POSSIBLE,,RECOVERED/RESOLVED,12.0,Y,,,,,,,DERMATOLOGIC EVENTS,
CDISCPILOT01,701,01-701-1275,Xanomeline High Dose,81.0,61.0,<65,1.0,AMERICAN INDIAN OR ALASKA NATIVE,6.0,M,Y,2014-02-07,2014-05-31,2014-02-24,,18.0,2014-06-03,117.0,100.0,DAY,SALIVARY HYPERSECRETION,HYPERSALIVATION,,SALIVARY HYPERSECRETION,,HLT_0374,,HLGT_0488,,GASTROINTESTINAL DISORDERS,GASTROINTESTINAL DISORDERS,,MILD,N,N,N,N,N,N,N,N,POSSIBLE,,RECOVERED/RESOLVED,13.0,Y,,,,,,,,
CDISCPILOT01,701,01-701-1275,Xanomeline High Dose,81.0,61.0,<65,1.0,AMERICAN INDIAN OR ALASKA NATIVE,6.0,M,Y,2014-02-07,2014-05-31,2014-02-24,,18.0,2014-06-03,117.0,100.0,DAY,PAROSMIA,STRANGE SMELL SENSATION,,PAROSMIA,,HLT_0258,,HLGT_0471,,NERVOUS SYSTEM DISORDERS,NERVOUS SYSTEM DISORDERS,,MILD,N,N,N,N,N,N,N,N,POSSIBLE,,RECOVERED/RESOLVED,14.0,Y,,,,,,,,
CDISCPILOT01,701,01-701-1275,Xanomeline High Dose,81.0,61.0,<65,1.0,AMERICAN INDIAN OR ALASKA NATIVE,6.0,M,Y,2014-02-07,2014-05-31,2014-02-24,,18.0,2014-06-12,126.0,109.0,DAY,PRURITUS,ITCHING,,PRURITUS,,HLT_0778,,HLGT_0695,,SKIN AND SUBCUTANEOUS TISSUE DISORDERS,SKIN AND SUBCUTANEOUS TISSUE DISORDERS,,MILD,N,N,N,N,N,N,N,N,POSSIBLE,,RECOVERED/RESOLVED,15.0,Y,,,,,,,DERMATOLOGIC EVENTS,
CDISCPILOT01,701,01-701-1287,Xanomeline High Dose,81.0,56.0,<65,1.0,WHITE,1.0,F,Y,2014-01-25,2014-07-26,2014-01-26,,2.0,,,,,SALIVARY HYPERSECRETION,INCREASED SALIVATION,,SALIVARY HYPERSECRETION,,HLT_0374,,HLGT_0488,,GASTROINTESTINAL DISORDERS,GASTROINTESTINAL DISORDERS,,MILD,N,N,N,N,N,N,N,N,NONE,,NOT RECOVERED/NOT RESOLVED,1.0,Y,Y,Y,Y,,,,,
CDISCPILOT01,701,01-701-1287,Xanomeline High Dose,81.0,56.0,<65,1.0,WHITE,1.0,F,Y,2014-01-25,2014-07-26,2014-02-22,,29.0,,,,,APPLICATION SITE PRURITUS,APPLICATION SITE ITCHING,,APPLICATION SITE PRURITUS,,HLT_0317,,HLGT_0338,,GENERAL DISORDERS AND ADMINISTRATION SITE CONDITIONS,GENERAL DISORDERS AND ADMINISTRATION SITE CONDITIONS,,MILD,N,N,N,N,N,N,N,N,POSSIBLE,,NOT RECOVERED/NOT RESOLVED,2.0,Y,,Y,Y,,,,DERMATOLOGIC EVENTS,Y
CDISCPILOT01,701,01-701-1287,Xanomeline High Dose,81.0,56.0,<65,1.0,WHITE,1.0,F,Y,2014-01-25,2014-07-26,2014-03-09,,44.0,,,,,APPLICATION SITE ERYTHEMA,APPLICATION SITE REDNESS,,APPLICATION SITE ERYTHEMA,,HLT_0617,,HLGT_0152,,GENERAL DISORDERS AND ADMINISTRATION SITE CONDITIONS,GENERAL DISORDERS AND ADMINISTRATION SITE CONDITIONS,,MILD,N,N,N,N,N,N,N,N,PROBABLE,,NOT RECOVERED/NOT RESOLVED,3.0,Y,,,Y,,,,DERMATOLOGIC EVENTS,
CDISCPILOT01,701,01-701-1287,Xanomeline High Dose,81.0,56.0,<65,1.0,WHITE,1.0,F,Y,2014-01-25,2014-07-26,2014-07-09,,166.0,2014-07-12,169.0,4.0,DAY,RHINORRHOEA,RUNNY NOSE,,RHINORRHOEA,,HLT_0635,,HLGT_0460,,"RESPIRATORY, THORACIC AND MEDIASTINAL DISORDERS","RESPIRATORY, THORACIC AND MEDIASTINAL DISORDERS",,MILD,N,N,N,N,N,N,N,N,NONE,,NOT RECOVERED/NOT RESOLVED,4.0,Y,,Y,Y,,,,,
CDISCPILOT01,701,01-701-1287,Xanomeline High Dose,81.0,56.0,<65,1.0,WHITE,1.0,F,Y,2014-01-25,2014-07-26,2014-07-09,,166.0,2014-07-12,169.0,4.0,DAY,RHINORRHOEA,RUNNY NOSE,,RHINORRHOEA,,HLT_0635,,HLGT_0460,,"RESPIRATORY, THORACIC AND MEDIASTINAL DISORDERS","RESPIRATORY, THORACIC AND MEDIASTINAL DISORDERS",,MILD,N,N,N,N,N,N,N,N,NONE,,RECOVERED/RESOLVED,5.0,Y,,,,,,,,
CDISCPILOT01,701,01-701-1294,Xanomeline Low Dose,54.0,67.0,65-80,2.0,WHITE,1.0,M,Y,2013-03-24,2013-06-14,2013-03-22,,-2.0,2013-03-23,-1.0,2.0,DAY,APPLICATION SITE PRURITUS,APPLICATION SITE ITCHING,,APPLICATION SITE PRURITUS,,HLT_0317,,HLGT_0338,,GENERAL DISORDERS AND ADMINISTRATION SITE CONDITIONS,GENERAL DISORDERS AND ADMINISTRATION SITE CONDITIONS,,MODERATE,N,N,N,N,N,N,N,N,NONE,,RECOVERED/RESOLVED,1.0,,,,,,,,DERMATOLOGIC EVENTS,
CDISCPILOT01,701,01-701-1294,Xanomeline Low Dose,54.0,67.0,65-80,2.0,WHITE,1.0,M,Y,2013-03-24,2013-06-14,2013-05-19,,57.0,,,,,APPLICATION SITE PRURITUS,APPLICATION SITE ITCHING,,APPLICATION SITE PRURITUS,,HLT_0317,,HLGT_0338,,GENERAL DISORDERS AND ADMINISTRATION SITE CONDITIONS,GENERAL DISORDERS AND ADMINISTRATION SITE CONDITIONS,,MILD,N,N,N,N,N,N,N,N,POSSIBLE,,NOT RECOVERED/NOT RESOLVED,2.0,Y,Y,Y,Y,,,,DERMATOLOGIC EVENTS,Y
CDISCPILOT01,701,01-701-1294,Xanomeline Low Dose,54.0,67.0,65-80,2.0,WHITE,1.0,M,Y,2013-03-24,2013-06-14,2013-05-19,,57.0,,,,,APPLICATION SITE ERYTHEMA,APPLICATION SITE REDNESS,,APPLICATION SITE ERYTHEMA,,HLT_0617,,HLGT_0152,,GENERAL DISORDERS AND ADMINISTRATION SITE CONDITIONS,GENERAL DISORDERS AND ADMINISTRATION SITE CONDITIONS,,MILD,N,N,N,N,N,N,N,N,PROBABLE,,NOT RECOVERED/NOT RESOLVED,3.0,Y,,,Y,,,,DERMATOLOGIC EVENTS,
CDISCPILOT01,701,01-701-1294,Xanomeline Low Dose,54.0,67.0,65-80,2.0,WHITE,1.0,M,Y,2013-03-24,2013-06-14,2013-05-19,,57.0,,,,,APPLICATION SITE PRURITUS,APPLICATION SITE ITCHING,,APPLICATION SITE PRURITUS,,HLT_0317,,HLGT_0338,,GENERAL DISORDERS AND ADMINISTRATION SITE CONDITIONS,GENERAL DISORDERS AND ADMINISTRATION SITE CONDITIONS,,MODERATE,N,N,N,N,N,N,N,N,POSSIBLE,,NOT RECOVERED/NOT RESOLVED,4.0,Y,,,,,,,DERMATOLOGIC EVENTS,
CDISCPILOT01,701,01-701-1294,Xanomeline Low Dose,54.0,67.0,65-80,2.0,WHITE,1.0,M,Y,2013-03-24,2013-06-14,2013-05-19,,57.0,,,,,APPLICATION SITE ERYTHEMA,APPLICATION SITE REDNESS,,APPLICATION SITE ERYTHEMA,,HLT_0617,,HLGT_0152,,GENERAL DISORDERS AND ADMINISTRATION SITE CONDITIONS,GENERAL DISORDERS AND ADMINISTRATION SITE CONDITIONS,,MODERATE,N,N,N,N,N,N,N,N,PROBABLE,,NOT RECOVERED/NOT RESOLVED,5.0,Y,,,,,,,DERMATOLOGIC EVENTS,
CDISCPILOT01,701,01-701-1294,Xanomeline Low Dose,54.0,67.0,65-80,2.0,WHITE,1.0,M,Y,2013-03-24,2013-06-14,2013-06-10,,79.0,,,,,RASH ERYTHEMATOUS,ERYTHEMATOUS RASH,,RASH ERYTHEMATOUS,,HLT_0336,,HLGT_0701,,SKIN AND SUBCUTANEOUS TISSUE DISORDERS,SKIN AND SUBCUTANEOUS TISSUE DISORDERS,,MODERATE,N,N,N,N,N,N,N,N,PROBABLE,,NOT RECOVERED/NOT RESOLVED,6.0,Y,,Y,Y,,,,DERMATOLOGIC EVENTS,
CDISCPILOT01,701,01-701-1302,Xanomeline High Dose,81.0,61.0,<65,1.0,WHITE,1.0,M,Y,2013-08-29,2013-11-05,2013-08-30,,2.0,,,,,APPLICATION SITE PERSPIRATION,APPLICATION SITE PERSPIRATION,,APPLICATION SITE PERSPIRATION,,HLT_0283,,HLGT_0403,,GENERAL DISORDERS AND ADMINISTRATION SITE CONDITIONS,GENERAL DISORDERS AND ADMINISTRATION SITE CONDITIONS,,MILD,N,N,N,N,N,N,N,N,POSSIBLE,,NOT RECOVERED/NOT RESOLVED,1.0,Y,Y,Y,Y,,,,DERMATOLOGIC EVENTS,Y
CDISCPILOT01,701,01-701-1302,Xanomeline High Dose,81.0,61.0,<65,1.0,WHITE,1.0,M,Y,2013-08-29,2013-11-05,2013-08-30,,2.0,,,,,HYPERHIDROSIS,PERSPIRATION EXCESSIVE,,HYPERHIDROSIS,,HLT_0587,,HLGT_0005,,SKIN AND SUBCUTANEOUS TISSUE DISORDERS,SKIN AND SUBCUTANEOUS TISSUE DISORDERS,,MILD,N,N,N,N,N,N,N,N,POSSIBLE,,NOT RECOVERED/NOT RESOLVED,2.0,Y,,Y,Y,,,,,
CDISCPILOT01,701,01-701-1302,Xanomeline High Dose,81.0,61.0,<65,1.0,WHITE,1.0,M,Y,2013-08-29,2013-11-05,2013-08-30,,2.0,,,,,STOMACH DISCOMFORT,STOMACH UPSET,,STOMACH DISCOMFORT,,HLT_0065,,HLGT_0183,,GASTROINTESTINAL DISORDERS,GASTROINTESTINAL DISORDERS,,MILD,N,N,N,N,N,N,N,N,POSSIBLE,,NOT RECOVERED/NOT RESOLVED,3.0,Y,,Y,Y,,,,,
CDISCPILOT01,701,01-701-1302,Xanomeline High Dose,81.0,61.0,<65,1.0,WHITE,1.0,M,Y,2013-08-29,2013-11-05,2013-08-31,,3.0,,,,,PAIN,STINGING,,PAIN,,HLT_0314,,HLGT_0478,,GENERAL DISORDERS AND ADMINISTRATION SITE CONDITIONS,GENERAL DISORDERS AND ADMINISTRATION SITE CONDITIONS,,MILD,N,N,N,N,N,N,N,N,POSSIBLE,,NOT RECOVERED/NOT RESOLVED,4.0,Y,,,Y,,,,,
CDISCPILOT01,701,01-701-1302,Xanomeline High Dose,81.0,61.0,<65,1.0,WHITE,1.0,M,Y,2013-08-29,2013-11-05,2013-09-01,,4.0,,,,,NASAL CONGESTION,NASAL CONGESTION,,NASAL CONGESTION,,HLT_0118,,HLGT_0549,,"RESPIRATORY, THORACIC AND MEDIASTINAL DISORDERS","RESPIRATORY, THORACIC AND MEDIASTINAL DISORDERS",,MILD,N,N,N,N,N,N,N,N,NONE,,NOT RECOVERED/NOT RESOLVED,5.0,Y,,Y,Y,,,,,
CDISCPILOT01,701,01-701-1302,Xanomeline High Dose,81.0,61.0,<65,1.0,WHITE,1.0,M,Y,2013-08-29,2013-11-05,2013-09-02,,5.0,,,,,PHARYNGOLARYNGEAL PAIN,SORE THROAT,,PHARYNGOLARYNGEAL PAIN,,HLT_0130,,HLGT_0402,,"RESPIRATORY, THORACIC AND MEDIASTINAL DISORDERS","RESPIRATORY, THORACIC AND MEDIASTINAL DISORDERS",,MILD,N,N,N,N,N,N,N,N,NONE,,NOT RECOVERED/NOT RESOLVED,6.0,Y,,,Y,,,,,
CDISCPILOT01,701,01-701-1302,Xanomeline High Dose,81.0,61.0,<65,1.0,WHITE,1.0,M,Y,2013-08-29,2013-11-05,2013-09-02,,5.0,,,,,PRODUCTIVE COUGH,PRODUCTIVE COUGH,,PRODUCTIVE COUGH,,HLT_0545,,HLGT_0681,,"RESPIRATORY, THORACIC AND MEDIASTINAL DISORDERS","RESPIRATORY, THORACIC AND MEDIASTINAL DISORDERS",,MILD,N,N,N,N,N,N,N,N,NONE,,NOT RECOVERED/NOT RESOLVED,7.0,Y,,,Y,,,,,
CDISCPILOT01,701,01-701-1302,Xanomeline High Dose,81.0,61.0,<65,1.0,WHITE,1.0,M,Y,2013-08-29,2013-11-05,2013-09-02,,5.0,,,,,MALAISE,MALAISE,,MALAISE,,HLT_0456,,HLGT_0178,,GENERAL DISORDERS AND ADMINISTRATION SITE CONDITIONS,GENERAL DISORDERS AND ADMINISTRATION SITE CONDITIONS,,MILD,N,N,N,N,N,N,N,N,REMOTE,,NOT RECOVERED/NOT RESOLVED,8.0,Y,,,Y,,,,,
CDISCPILOT01,701,01-701-1302,Xanomeline High Dose,81.0,61.0,<65,1.0,WHITE,1.0,M,Y,2013-08-29,2013-11-05,2013-09-02,,5.0,2013-09-03,6.0,2.0,DAY,DIZZINESS,DIZZY,,DIZZINESS,,HLT_0619,,HLGT_0751,,NERVOUS SYSTEM DISORDERS,NERVOUS SYSTEM DISORDERS,,MODERATE,N,N,N,N,N,N,N,N,REMOTE,,RECOVERED/RESOLVED,9.0,Y,,Y,Y,,,,,
CDISCPILOT01,701,01-701-1302,Xanomeline High Dose,81.0,61.0,<65,1.0,WHITE,1.0,M,Y,2013-08-29,2013-11-05,2013-09-02,,5.0,,,,,MYALGIA,MYALGIA,,MYALGIA,,HLT_0700,,HLGT_0121,,MUSCULOSKELETAL AND CONNECTIVE TISSUE DISORDERS,MUSCULOSKELETAL AND CONNECTIVE TISSUE DISORDERS,,MILD,N,N,N,N,N,N,N,N,POSSIBLE,,NOT RECOVERED/NOT RESOLVED,10.0,Y,,Y,Y,,,,,
CDISCPILOT01,701,01-701-1302,Xanomeline High Dose,81.0,61.0,<65,1.0,WHITE,1.0,M,Y,2013-08-29,2013-11-05,2013-09-04,,7.0,,,,,DIZZINESS,LIGHTHEADEDNESS,,DIZZINESS,,HLT_0619,,HLGT_0751,,NERVOUS SYSTEM DISORDERS,NERVOUS SYSTEM DISORDERS,,MILD,N,N,N,N,N,N,N,N,POSSIBLE,,NOT RECOVERED/NOT RESOLVED,11.0,Y,,,,,,,,
CDISCPILOT01,701,01-701-1302,Xanomeline High Dose,81.0,61.0,<65,1.0,WHITE,1.0,M,Y,2013-08-29,2013-11-05,2013-09-05,,8.0,2013-10-08,41.0,34.0,DAY,CONTUSION,BRUISE,,CONTUSION,,HLT_0713,,HLGT_0381,,"INJURY, POISONING AND PROCEDURAL COMPLICATIONS","INJURY, POISONING AND PROCEDURAL COMPLICATIONS",,MILD,N,N,N,N,N,N,N,N,REMOTE,,NOT RECOVERED/NOT RESOLVED,12.0,Y,,Y,Y,,,,,
CDISCPILOT01,701,01-701-1302,Xanomeline High Dose,81.0,61.0,<65,1.0,WHITE,1.0,M,Y,2013-08-29,2013-11-05,2013-09-15,,18.0,,,,,HEADACHE,HEADACHE,,HEADACHE,,HLT_0064,,HLGT_0344,,NERVOUS SYSTEM DISORDERS,NERVOUS SYSTEM DISORDERS,,MILD,N,N,N,N,N,N,N,N,NONE,,NOT RECOVERED/NOT RESOLVED,13.0,Y,,,Y,,,,,
CDISCPILOT01,701,01-701-1302,Xanomeline High Dose,81.0,61.0,<65,1.0,WHITE,1.0,M,Y,2013-08-29,2013-11-05,2013-09-30,,33.0,,,,,EPISTAXIS,NOSE BLEED,,EPISTAXIS,,HLT_0386,,HLGT_0577,,"RESPIRATORY, THORACIC AND MEDIASTINAL DISORDERS","RESPIRATORY, THORACIC AND MEDIASTINAL DISORDERS",,MILD,N,N,N,N,N,N,N,N,REMOTE,,NOT RECOVERED/NOT RESOLVED,14.0,Y,,,Y,,,,,
CDISCPILOT01,701,01-701-1302,Xanomeline High Dose,81.0,61.0,<65,1.0,WHITE,1.0,M,Y,2013-08-29,2013-11-05,2013-09-05,,8.0,2013-10-08,41.0,34.0,DAY,CONTUSION,BRUISE,,CONTUSION,,HLT_0713,,HLGT_0381,,"INJURY, POISONING AND PROCEDURAL COMPLICATIONS","INJURY, POISONING AND PROCEDURAL COMPLICATIONS",,MILD,N,N,N,N,N,N,N,N,REMOTE,,RECOVERED/RESOLVED,15.0,Y,,,,,,,,
CDISCPILOT01,701,01-701-1302,Xanomeline High Dose,81.0,61.0,<65,1.0,WHITE,1.0,M,Y,2013-08-29,2013-11-05,2013-10-15,,48.0,,,,,APPLICATION SITE ERYTHEMA,APPLICATION SITE REDNESS,,APPLICATION SITE ERYTHEMA,,HLT_0617,,HLGT_0152,,GENERAL DISORDERS AND ADMINISTRATION SITE CONDITIONS,GENERAL DISORDERS AND ADMINISTRATION SITE CONDITIONS,,MILD,N,N,N,N,N,N,N,N,PROBABLE,,NOT RECOVERED/NOT RESOLVED,16.0,Y,,,Y,,,,DERMATOLOGIC EVENTS,
CDISCPILOT01,701,01-701-1302,Xanomeline High Dose,81.0,61.0,<65,1.0,WHITE,1.0,M,Y,2013-08-29,2013-11-05,2013-10-15,,48.0,,,,,APPLICATION SITE PRURITUS,APPLICATION SITE ITCHING,,APPLICATION SITE PRURITUS,,HLT_0317,,HLGT_0338,,GENERAL DISORDERS AND ADMINISTRATION SITE CONDITIONS,GENERAL DISORDERS AND ADMINISTRATION SITE CONDITIONS,,MILD,N,N,N,N,N,N,N,N,PROBABLE,,NOT RECOVERED/NOT RESOLVED,17.0,Y,,,Y,,,,DERMATOLOGIC EVENTS,
CDISCPILOT01,701,01-701-1302,Xanomeline High Dose,81.0,61.0,<65,1.0,WHITE,1.0,M,Y,2013-08-29,2013-11-05,2013-09-02,,5.0,,,,,MALAISE,MALAISE,,MALAISE,,HLT_0456,,HLGT_0178,,GENERAL DISORDERS AND ADMINISTRATION SITE CONDITIONS,GENERAL DISORDERS AND ADMINISTRATION SITE CONDITIONS,,MODERATE,N,N,N,N,N,N,N,N,REMOTE,,NOT RECOVERED/NOT RESOLVED,18.0,Y,,,,,,,,
CDISCPILOT01,701,01-701-1302,Xanomeline High Dose,81.0,61.0,<65,1.0,WHITE,1.0,M,Y,2013-08-29,2013-11-05,2013-10-23,,56.0,,,,,RESPIRATORY TRACT CONGESTION,RESPIRATORY TRACT CONGESTION,,RESPIRATORY TRACT CONGESTION,,HLT_0330,,HLGT_0424,,"RESPIRATORY, THORACIC AND MEDIASTINAL DISORDERS","RESPIRATORY, THORACIC AND MEDIASTINAL DISORDERS",,MILD,N,N,N,N,N,N,N,N,NONE,,NOT RECOVERED/NOT RESOLVED,19.0,Y,,,Y,,,,,
CDISCPILOT01,701,01-701-1302,Xanomeline High Dose,81.0,61.0,<65,1.0,WHITE,1.0,M,Y,2013-08-29,2013-11-05,2013-10-23,,56.0,,,,,RHINITIS,CORYZA,,RHINITIS,,HLT_0239,,HLGT_0322,,INFECTIONS AND INFESTATIONS,INFECTIONS AND INFESTATIONS,,MILD,N,N,N,N,N,N,N,N,NONE,,NOT RECOVERED/NOT RESOLVED,20.0,Y,,Y,Y,,,,,
CDISCPILOT01,701,01-701-1302,Xanomeline High Dose,81.0,61.0,<65,1.0,WHITE,1.0,M,Y,2013-08-29,2013-11-05,2013-10-24,,57.0,,,,,FEELING ABNORMAL,FOGGY FEELING IN HEAD,,FEELING ABNORMAL,,HLT_0524,,HLGT_0749,,GENERAL DISORDERS AND ADMINISTRATION SITE CONDITIONS,GENERAL DISORDERS AND ADMINISTRATION SITE CONDITIONS,,MILD,N,N,N,N,N,N,N,N,POSSIBLE,,NOT RECOVERED/NOT RESOLVED,21.0,Y,,,Y,,,,,
CDISCPILOT01,701,01-701-1302,Xanomeline High Dose,81.0,61.0,<65,1.0,WHITE,1.0,M,Y,2013-08-29,2013-11-05,2013-10-24,,57.0,,,,,LISTLESS,LISTLESSNESS,,LISTLESS,,HLT_0657,,HLGT_0124,,PSYCHIATRIC DISORDERS,PSYCHIATRIC DISORDERS,,MILD,N,N,N,N,N,N,N,N,POSSIBLE,,NOT RECOVERED/NOT RESOLVED,22.0,Y,,Y,Y,,,,,
CDISCPILOT01,701,01-701-1302,Xanomeline High Dose,81.0,61.0,<65,1.0,WHITE,1.0,M,Y,2013-08-29,2013-11-05,2013-10-24,,57.0,,,,,LIBIDO DECREASED,LIBIDO DECREASED,,LIBIDO DECREASED,,HLT_0338,,HLGT_0496,,PSYCHIATRIC DISORDERS,PSYCHIATRIC DISORDERS,,MILD,N,N,N,N,N,N,N,N,POSSIBLE,,NOT RECOVERED/NOT RESOLVED,23.0,Y,,,Y,,,,,
CDISCPILOT01,701,01-701-1317,Xanomeline Low Dose,54.0,68.0,65-80,2.0,WHITE,1.0,M,Y,2014-05-22,2014-11-20,2014-05-13,,-9.0,,,,,ONYCHOMYCOSIS,ONYCHOMYCOSIS,,ONYCHOMYCOSIS,,HLT_0275,,HLGT_0243,,INFECTIONS AND INFESTATIONS,INFECTIONS AND INFESTATIONS,,MILD,N,N,N,N,N,N,N,N,NONE,,NOT RECOVERED/NOT RESOLVED,1.0,,,,,,,,,
CDISCPILOT01,701,01-701-1317,Xanomeline Low Dose,54.0,68.0,65-80,2.0,WHITE,1.0,M,Y,2014-05-22,2014-11-20,2014-05-13,,-9.0,,,,,CYST,CYST,,CYST,,HLT_0763,,HLGT_0341,,GENERAL DISORDERS AND ADMINISTRATION SITE CONDITIONS,GENERAL DISORDERS AND ADMINISTRATION SITE CONDITIONS,,MILD,N,N,N,N,N,N,N,N,NONE,,NOT RECOVERED/NOT RESOLVED,2.0,,,,,,,,,
CDISCPILOT01,701,01-701-1317,Xanomeline Low Dose,54.0,68.0,65-80,2.0,WHITE,1.0,M,Y,2014-05-22,2014-11-20,2014-06-23,,33.0,,,,,APPLICATION SITE ERYTHEMA,APPLICATION SITE REDNESS,,APPLICATION SITE ERYTHEMA,,HLT_0617,,HLGT_0152,,GENERAL DISORDERS AND ADMINISTRATION SITE CONDITIONS,GENERAL DISORDERS AND ADMINISTRATION SITE CONDITIONS,,MILD,N,N,N,N,N,N,N,N,POSSIBLE,,NOT RECOVERED/NOT RESOLVED,3.0,Y,Y,Y,Y,,,,DERMATOLOGIC EVENTS,Y
CDISCPILOT01,701,01-701-1317,Xanomeline Low Dose,54.0,68.0,65-80,2.0,WHITE,1.0,M,Y,2014-05-22,2014-11-20,2014-06-23,,33.0,,,,,APPLICATION SITE PRURITUS,APPLICATION SITE ITCHING,,APPLICATION SITE PRURITUS,,HLT_0317,,HLGT_0338,,GENERAL DISORDERS AND ADMINISTRATION SITE CONDITIONS,GENERAL DISORDERS AND ADMINISTRATION SITE CONDITIONS,,MILD,N,N,N,N,N,N,N,N,POSSIBLE,,NOT RECOVERED/NOT RESOLVED,4.0,Y,,,Y,,,,DERMATOLOGIC EVENTS,
CDISCPILOT01,701,01-701-1317,Xanomeline Low Dose,54.0,68.0,65-80,2.0,WHITE,1.0,M,Y,2014-05-22,2014-11-20,2014-06-23,,33.0,,,,,APPLICATION SITE URTICARIA,APPLICATION SITE URTICARIA,,APPLICATION SITE URTICARIA,,HLT_0196,,HLGT_0233,,GENERAL DISORDERS AND ADMINISTRATION SITE CONDITIONS,GENERAL DISORDERS AND ADMINISTRATION SITE CONDITIONS,,MILD,N,N,N,N,N,N,N,N,POSSIBLE,,NOT RECOVERED/NOT RESOLVED,5.0,Y,,,Y,,,,DERMATOLOGIC EVENTS,
CDISCPILOT01,701,01-701-1317,Xanomeline Low Dose,54.0,68.0,65-80,2.0,WHITE,1.0,M,Y,2014-05-22,2014-11-20,2014-07-04,,44.0,,,,,DEPRESSED MOOD,DEPRESSED MOOD,,DEPRESSED MOOD,,HLT_0784,,HLGT_0122,,PSYCHIATRIC DISORDERS,PSYCHIATRIC DISORDERS,,MILD,N,N,N,N,N,N,N,N,POSSIBLE,,NOT RECOVERED/NOT RESOLVED,6.0,Y,,Y,Y,,,,,
CDISCPILOT01,701,01-701-1317,Xanomeline Low Dose,54.0,68.0,65-80,2.0,WHITE,1.0,M,Y,2014-05-22,2014-11-20,2014-07-04,,44.0,,,,,DEPRESSED MOOD,DEPRESSED MOOD,,DEPRESSED MOOD,,HLT_0784,,HLGT_0122,,PSYCHIATRIC DISORDERS,PSYCHIATRIC DISORDERS,,MODERATE,N,N,N,N,N,N,N,N,POSSIBLE,,NOT RECOVERED/NOT RESOLVED,7.0,Y,,,,,,,,
CDISCPILOT01,701,01-701-1317,Xanomeline Low Dose,54.0,68.0,65-80,2.0,WHITE,1.0,M,Y,2014-05-22,2014-11-20,2014-09-12,,114.0,,,,,FATIGUE,TIREDNESS,,FATIGUE,,HLT_0043,,HLGT_0181,,GENERAL DISORDERS AND ADMINISTRATION SITE CONDITIONS,GENERAL DISORDERS AND ADMINISTRATION SITE CONDITIONS,,MILD,N,N,N,N,N,N,N,N,REMOTE,,NOT RECOVERED/NOT RESOLVED,8.0,Y,,,Y,,,,,
CDISCPILOT01,701,01-701-1317,Xanomeline Low Dose,54.0,68.0,65-80,2.0,WHITE,1.0,M,Y,2014-05-22,2014-11-20,2014-11-03,,166.0,,,,,DYSPHONIA,HOARSENESS,,DYSPHONIA,,HLT_0073,,HLGT_0274,,"RESPIRATORY, THORACIC AND MEDIASTINAL DISORDERS","RESPIRATORY, THORACIC AND MEDIASTINAL DISORDERS",,MILD,N,N,N,N,N,N,N,N,REMOTE,,NOT RECOVERED/NOT RESOLVED,9.0,Y,,Y,Y,,,,,
CDISCPILOT01,701,01-701-1324,Xanomeline Low Dose,54.0,79.0,65-80,2.0,WHITE,1.0,M,Y,2012-10-02,2013-04-02,2012-10-22,,21.0,,,,,APPLICATION SITE ERYTHEMA,APPLICATION SITE ERYTHEMA,,APPLICATION SITE ERYTHEMA,,HLT_0617,,HLGT_0152,,GENERAL DISORDERS AND ADMINISTRATION SITE CONDITIONS,GENERAL DISORDERS AND ADMINISTRATION SITE CONDITIONS,,MILD,N,N,N,N,N,N,N,N,PROBABLE,,NOT RECOVERED/NOT RESOLVED,1.0,Y,Y,Y,Y,,,,DERMATOLOGIC EVENTS,Y
CDISCPILOT01,701,01-701-1324,Xanomeline Low Dose,54.0,79.0,65-80,2.0,WHITE,1.0,M,Y,2012-10-02,2013-04-02,2012-12-02,,62.0,,,,,APPLICATION SITE PRURITUS,APPLICATION SITE ITCHING,,APPLICATION SITE PRURITUS,,HLT_0317,,HLGT_0338,,GENERAL DISORDERS AND ADMINISTRATION SITE CONDITIONS,GENERAL DISORDERS AND ADMINISTRATION SITE CONDITIONS,,MILD,N,N,N,N,N,N,N,N,PROBABLE,,NOT RECOVERED/NOT RESOLVED,2.0,Y,,,Y,,,,DERMATOLOGIC EVENTS,
CDISCPILOT01,701,01-701-1324,Xanomeline Low Dose,54.0,79.0,65-80,2.0,WHITE,1.0,M,Y,2012-10-02,2013-04-02,2012-12-25,,85.0,2013-01-16,107.0,23.0,DAY,APPLICATION SITE VESICLES,APPLICATION SITE BLISTER,,APPLICATION SITE VESICLES,,HLT_0180,,HLGT_0576,,GENERAL DISORDERS AND ADMINISTRATION SITE CONDITIONS,GENERAL DISORDERS AND ADMINISTRATION SITE CONDITIONS,,MILD,N,N,N,N,N,N,N,N,PROBABLE,,NOT RECOVERED/NOT RESOLVED,3.0,Y,,,Y,,,,DERMATOLOGIC EVENTS,
CDISCPILOT01,701,01-701-1324,Xanomeline Low Dose,54.0,79.0,65-80,2.0,WHITE,1.0,M,Y,2012-10-02,2013-04-02,2012-12-25,,85.0,2013-01-16,107.0,23.0,DAY,APPLICATION SITE VESICLES,APPLICATION SITE BLISTER,,APPLICATION SITE VESICLES,,HLT_0180,,HLGT_0576,,GENERAL DISORDERS AND ADMINISTRATION SITE CONDITIONS,GENERAL DISORDERS AND ADMINISTRATION SITE CONDITIONS,,MILD,N,N,N,N,N,N,N,N,PROBABLE,,RECOVERED/RESOLVED,4.0,Y,,,,,,,DERMATOLOGIC EVENTS,
CDISCPILOT01,701,01-701-1341,Xanomeline Low Dose,54.0,51.0,<65,1.0,WHITE,1.0,M,Y,2013-01-05,2013-01-26,2013-01-19,,15.0,,,,,APPLICATION SITE PRURITUS,APPLICATION SITE ITCHING,,APPLICATION SITE PRURITUS,,HLT_0317,,HLGT_0338,,GENERAL DISORDERS AND ADMINISTRATION SITE CONDITIONS,GENERAL DISORDERS AND ADMINISTRATION SITE CONDITIONS,,MODERATE,N,N,N,N,N,N,N,N,PROBABLE,,NOT RECOVERED/NOT RESOLVED,1.0,Y,Y,Y,Y,,,,DERMATOLOGIC EVENTS,Y
CDISCPILOT01,701,01-701-1341,Xanomeline Low Dose,54.0,51.0,<65,1.0,WHITE,1.0,M,Y,2013-01-05,2013-01-26,2013-01-19,,15.0,,,,,APPLICATION SITE ERYTHEMA,APPLICATION SITE REDNESS,,APPLICATION SITE ERYTHEMA,,HLT_0617,,HLGT_0152,,GENERAL DISORDERS AND ADMINISTRATION SITE CONDITIONS,GENERAL DISORDERS AND ADMINISTRATION SITE CONDITIONS,,MODERATE,N,N,N,N,N,N,N,N,PROBABLE,,NOT RECOVERED/NOT RESOLVED,2.0,Y,,,Y,,,,DERMATOLOGIC EVENTS,
CDISCPILOT01,701,01-701-1341,Xanomeline Low Dose,54.0,51.0,<65,1.0,WHITE,1.0,M,Y,2013-01-05,2013-01-26,2013-01-26,,22.0,2013-01-30,26.0,5.0,DAY,APPLICATION SITE PRURITUS,APPLICATION SITE ITCHING,,APPLICATION SITE PRURITUS,,HLT_0317,,HLGT_0338,,GENERAL DISORDERS AND ADMINISTRATION SITE CONDITIONS,GENERAL DISORDERS AND ADMINISTRATION SITE CONDITIONS,,MODERATE,N,N,N,N,N,N,N,N,PROBABLE,,RECOVERED/RESOLVED,3.0,Y,,,,,,,DERMATOLOGIC EVENTS,
CDISCPILOT01,701,01-701-1341,Xanomeline Low Dose,54.0,51.0,<65,1.0,WHITE,1.0,M,Y,2013-01-05,2013-01-26,2013-01-26,,22.0,,,,,APPLICATION SITE ERYTHEMA,APPLICATION SITE REDNESS,,APPLICATION SITE ERYTHEMA,,HLT_0617,,HLGT_0152,,GENERAL DISORDERS AND ADMINISTRATION SITE CONDITIONS,GENERAL DISORDERS AND ADMINISTRATION SITE CONDITIONS,,MODERATE,N,N,N,N,N,N,N,N,PROBABLE,,NOT RECOVERED/NOT RESOLVED,4.0,Y,,,,,,,DERMATOLOGIC EVENTS,
CDISCPILOT01,701,01-701-1341,Xanomeline Low Dose,54.0,51.0,<65,1.0,WHITE,1.0,M,Y,2013-01-05,2013-01-26,2013-01-26,,22.0,2013-01-30,26.0,5.0,DAY,APPLICATION SITE IRRITATION,APPLICATION SITE BURNING,,APPLICATION SITE IRRITATION,,HLT_0061,,HLGT_0346,,GENERAL DISORDERS AND ADMINISTRATION SITE CONDITIONS,GENERAL DISORDERS AND ADMINISTRATION SITE CONDITIONS,,MODERATE,N,N,N,N,N,N,N,N,PROBABLE,,RECOVERED/RESOLVED,5.0,Y,,,Y,,,,DERMATOLOGIC EVENTS,
CDISCPILOT01,701,01-701-1360,Xanomeline High Dose,81.0,67.0,65-80,2.0,WHITE,1.0,M,Y,2013-07-31,2013-08-05,2013-08-02,,3.0,,,,,APPLICATION SITE ERYTHEMA,APPLICATION SITE ERYTHEMA,,APPLICATION SITE ERYTHEMA,,HLT_0617,,HLGT_0152,,GENERAL DISORDERS AND ADMINISTRATION SITE CONDITIONS,GENERAL DISORDERS AND ADMINISTRATION SITE CONDITIONS,,MODERATE,N,N,N,N,N,N,N,N,PROBABLE,,NOT RECOVERED/NOT RESOLVED,1.0,Y,Y,Y,Y,,,,DERMATOLOGIC EVENTS,Y
CDISCPILOT01,701,01-701-1360,Xanomeline High Dose,81.0,67.0,65-80,2.0,WHITE,1.0,M,Y,2013-07-31,2013-08-05,2013-08-02,,3.0,,,,,APPLICATION SITE PRURITUS,APPLICATION SITE ITCHING,,APPLICATION SITE PRURITUS,,HLT_0317,,HLGT_0338,,GENERAL DISORDERS AND ADMINISTRATION SITE CONDITIONS,GENERAL DISORDERS AND ADMINISTRATION SITE CONDITIONS,,MODERATE,N,N,N,N,N,N,N,N,PROBABLE,,NOT RECOVERED/NOT RESOLVED,2.0,Y,,,Y,,,,DERMATOLOGIC EVENTS,
CDISCPILOT01,701,01-701-1360,Xanomeline High Dose,81.0,67.0,65-80,2.0,WHITE,1.0,M,Y,2013-07-31,2013-08-05,2013-08-05,,6.0,,,,,APPLICATION SITE VESICLES,APPLICATION SITE BLISTER,,APPLICATION SITE VESICLES,,HLT_0180,,HLGT_0576,,GENERAL DISORDERS AND ADMINISTRATION SITE CONDITIONS,GENERAL DISORDERS AND ADMINISTRATION SITE CONDITIONS,,MODERATE,N,N,N,N,N,N,N,N,PROBABLE,,NOT RECOVERED/NOT RESOLVED,3.0,Y,,,Y,,,,DERMATOLOGIC EVENTS,
CDISCPILOT01,701,01-701-1363,Placebo,0.0,81.0,>80,3.0,BLACK OR AFRICAN AMERICAN,2.0,F,Y,2013-05-30,2013-11-27,2013-06-14,,16.0,2013-06-15,17.0,2.0,DAY,NAUSEA,NAUSEA,,NAUSEA,,HLT_0742,,HLGT_0326,,GASTROINTESTINAL DISORDERS,GASTROINTESTINAL DISORDERS,,MILD,N,N,N,N,N,N,N,N,REMOTE,,RECOVERED/RESOLVED,1.0,Y,Y,Y,Y,,,,,
CDISCPILOT01,701,01-701-1363,Placebo,0.0,81.0,>80,3.0,BLACK OR AFRICAN AMERICAN,2.0,F,Y,2013-05-30,2013-11-27,,,,,,,,HEADACHE,HEADACHE,,HEADACHE,,HLT_0064,,HLGT_0344,,NERVOUS SYSTEM DISORDERS,NERVOUS SYSTEM DISORDERS,,MODERATE,N,N,N,N,N,N,N,N,POSSIBLE,,NOT RECOVERED/NOT RESOLVED,2.0,,,,,,,,,
CDISCPILOT01,701,01-701-1363,Placebo,0.0,81.0,>80,3.0,BLACK OR AFRICAN AMERICAN,2.0,F,Y,2013-05-30,2013-11-27,2013-07-16,,48.0,,,,,APPLICATION SITE PRURITUS,APPLICATION SITE ITCHING,,APPLICATION SITE PRURITUS,,HLT_0317,,HLGT_0338,,GENERAL DISORDERS AND ADMINISTRATION SITE CONDITIONS,GENERAL DISORDERS AND ADMINISTRATION SITE CONDITIONS,,MILD,N,N,N,N,N,N,N,N,PROBABLE,,NOT RECOVERED/NOT RESOLVED,3.0,Y,,Y,Y,,,,DERMATOLOGIC EVENTS,Y
CDISCPILOT01,701,01-701-1363,Placebo,0.0,81.0,>80,3.0,BLACK OR AFRICAN AMERICAN,2.0,F,Y,2013-05-30,2013-11-27,,,,,,,,HEADACHE,HEADACHE,,HEADACHE,,HLT_0064,,HLGT_0344,,NERVOUS SYSTEM DISORDERS,NERVOUS SYSTEM DISORDERS,,MILD,N,N,N,N,N,N,N,N,POSSIBLE,,NOT RECOVERED/NOT RESOLVED,4.0,,,,,,,,,
CDISCPILOT01,701,01-701-1363,Placebo,0.0,81.0,>80,3.0,BLACK OR AFRICAN AMERICAN,2.0,F,Y,2013-05-30,2013-11-27,2013-10-13,,137.0,2013-10-15,139.0,3.0,DAY,BACK PAIN,BACKACHE,,BACK PAIN,,HLT_0115,,HLGT_0508,,MUSCULOSKELETAL AND CONNECTIVE TISSUE DISORDERS,MUSCULOSKELETAL AND CONNECTIVE TISSUE DISORDERS,,MILD,N,N,N,N,N,N,N,N,NONE,,NOT RECOVERED/NOT RESOLVED,5.0,Y,,Y,Y,,,,,
CDISCPILOT01,701,01-701-1363,Placebo,0.0,81.0,>80,3.0,BLACK OR AFRICAN AMERICAN,2.0,F,Y,2013-05-30,2013-11-27,2013-10-13,,137.0,2013-10-15,139.0,3.0,DAY,BACK PAIN,BACKACHE,,BACK PAIN,,HLT_0115,,HLGT_0508,,MUSCULOSKELETAL AND CONNECTIVE TISSUE DISORDERS,MUSCULOSKELETAL AND CONNECTIVE TISSUE DISORDERS,,MILD,N,N,N,N,N,N,N,N,NONE,,RECOVERED/RESOLVED,6.0,Y,,,,,,,,
CDISCPILOT01,701,01-701-1383,Xanomeline High Dose,81.0,72.0,65-80,2.0,WHITE,1.0,F,Y,2013-02-04,2013-08-06,2013-02-07,,4.0,2013-02-07,4.0,1.0,DAY,APPLICATION SITE PRURITUS,APPLICATION SITE ITCHING,,APPLICATION SITE PRURITUS,,HLT_0317,,HLGT_0338,,GENERAL DISORDERS AND ADMINISTRATION SITE CONDITIONS,GENERAL DISORDERS AND ADMINISTRATION SITE CONDITIONS,,MILD,N,N,N,N,N,N,N,N,PROBABLE,,RECOVERED/RESOLVED,1.0,Y,Y,Y,Y,,,,DERMATOLOGIC EVENTS,Y
CDISCPILOT01,701,01-701-1383,Xanomeline High Dose,81.0,72.0,65-80,2.0,WHITE,1.0,F,Y,2013-02-04,2013-08-06,2013-02-07,,4.0,2013-02-07,4.0,1.0,DAY,APPLICATION SITE PAIN,APPLICATION SITE PAIN,,APPLICATION SITE PAIN,,HLT_0342,,HLGT_0085,,GENERAL DISORDERS AND ADMINISTRATION SITE CONDITIONS,GENERAL DISORDERS AND ADMINISTRATION SITE CONDITIONS,,MILD,N,N,N,N,N,N,N,N,PROBABLE,,RECOVERED/RESOLVED,2.0,Y,,,Y,,,,DERMATOLOGIC EVENTS,
CDISCPILOT01,701,01-701-1383,Xanomeline High Dose,81.0,72.0,65-80,2.0,WHITE,1.0,F,Y,2013-02-04,2013-08-06,2013-03-23,,48.0,2013-03-26,51.0,4.0,DAY,APPLICATION SITE ERYTHEMA,APPLICATION SITE ERYTHEMA,,APPLICATION SITE ERYTHEMA,,HLT_0617,,HLGT_0152,,GENERAL DISORDERS AND ADMINISTRATION SITE CONDITIONS,GENERAL DISORDERS AND ADMINISTRATION SITE CONDITIONS,,MILD,N,N,N,N,N,N,N,N,POSSIBLE,,RECOVERED/RESOLVED,3.0,Y,,,Y,,,,DERMATOLOGIC EVENTS,
CDISCPILOT01,701,01-701-1383,Xanomeline High Dose,81.0,72.0,65-80,2.0,WHITE,1.0,F,Y,2013-02-04,2013-08-06,2013-03-23,,48.0,,,,,APPLICATION SITE PRURITUS,APPLICATION SITE ITCHING,,APPLICATION SITE PRURITUS,,HLT_0317,,HLGT_0338,,GENERAL DISORDERS AND ADMINISTRATION SITE CONDITIONS,GENERAL DISORDERS AND ADMINISTRATION SITE CONDITIONS,,MILD,N,N,N,N,N,N,N,N,POSSIBLE,,NOT RECOVERED/NOT RESOLVED,4.0,Y,,,,,,,DERMATOLOGIC EVENTS,
CDISCPILOT01,701,01-701-1383,Xanomeline High Dose,81.0,72.0,65-80,2.0,WHITE,1.0,F,Y,2013-02-04,2013-08-06,2013-04-12,,68.0,,,,,APPLICATION SITE ERYTHEMA,APPLICATION SITE ERYTHEMA,,APPLICATION SITE ERYTHEMA,,HLT_0617,,HLGT_0152,,GENERAL DISORDERS AND ADMINISTRATION SITE CONDITIONS,GENERAL DISORDERS AND ADMINISTRATION SITE CONDITIONS,,MILD,N,N,N,N,N,N,N,N,POSSIBLE,,NOT RECOVERED/NOT RESOLVED,5.0,Y,,,,,,,DERMATOLOGIC EVENTS,
CDISCPILOT01,701,01-701-1383,Xanomeline High Dose,81.0,72.0,65-80,2.0,WHITE,1.0,F,Y,2013-02-04,2013-08-06,2013-04-12,,68.0,,,,,APPLICATION SITE IRRITATION,APPLICATION SITE BURNING,,APPLICATION SITE IRRITATION,,HLT_0061,,HLGT_0346,,GENERAL DISORDERS AND ADMINISTRATION SITE CONDITIONS,GENERAL DISORDERS AND ADMINISTRATION SITE CONDITIONS,,MILD,N,N,N,N,N,N,N,N,POSSIBLE,,NOT RECOVERED/NOT RESOLVED,6.0,Y,,,Y,,,,DERMATOLOGIC EVENTS,
CDISCPILOT01,701,01-701-1383,Xanomeline High Dose,81.0,72.0,65-80,2.0,WHITE,1.0,F,Y,2013-02-04,2013-08-06,2013-03-23,,48.0,,,,,APPLICATION SITE PRURITUS,APPLICATION SITE ITCHING,,APPLICATION SITE PRURITUS,,HLT_0317,,HLGT_0338,,GENERAL DISORDERS AND ADMINISTRATION SITE CONDITIONS,GENERAL DISORDERS AND ADMINISTRATION SITE CONDITIONS,,MODERATE,N,N,N,N,N,N,N,N,POSSIBLE,,NOT RECOVERED/NOT RESOLVED,7.0,Y,,,,,,,DERMATOLOGIC EVENTS,
CDISCPILOT01,701,01-701-1383,Xanomeline High Dose,81.0,72.0,65-80,2.0,WHITE,1.0,F,Y,2013-02-04,2013-08-06,2013-04-12,,68.0,,,,,APPLICATION SITE IRRITATION,APPLICATION SITE BURNING,,APPLICATION SITE IRRITATION,,HLT_0061,,HLGT_0346,,GENERAL DISORDERS AND ADMINISTRATION SITE CONDITIONS,GENERAL DISORDERS AND ADMINISTRATION SITE CONDITIONS,,MODERATE,N,N,N,N,N,N,N,N,POSSIBLE,,NOT RECOVERED/NOT RESOLVED,8.0,Y,,,,,,,DERMATOLOGIC EVENTS,
CDISCPILOT01,701,01-701-1383,Xanomeline High Dose,81.0,72.0,65-80,2.0,WHITE,1.0,F,Y,2013-02-04,2013-08-06,2013-05-07,,93.0,2013-05-24,110.0,18.0,DAY,APPLICATION SITE VESICLES,APPLICATION SITE BLISTER,,APPLICATION SITE VESICLES,,HLT_0180,,HLGT_0576,,GENERAL DISORDERS AND ADMINISTRATION SITE CONDITIONS,GENERAL DISORDERS AND ADMINISTRATION SITE CONDITIONS,,MILD,N,N,N,N,N,N,N,N,POSSIBLE,,RECOVERED/RESOLVED,9.0,Y,,,Y,,,,DERMATOLOGIC EVENTS,
CDISCPILOT01,701,01-701-1383,Xanomeline High Dose,81.0,72.0,65-80,2.0,WHITE,1.0,F,Y,2013-02-04,2013-08-06,2013-06-24,,141.0,2013-06-24,141.0,1.0,DAY,CHEST DISCOMFORT,CHEST PRESSURE,,CHEST DISCOMFORT,,HLT_0593,,HLGT_0441,,GENERAL DISORDERS AND ADMINISTRATION SITE CONDITIONS,GENERAL DISORDERS AND ADMINISTRATION SITE CONDITIONS,,MILD,N,N,N,N,N,N,N,N,NONE,,RECOVERED/RESOLVED,10.0,Y,,,Y,,,,,
CDISCPILOT01,701,01-701-1383,Xanomeline High Dose,81.0,72.0,65-80,2.0,WHITE,1.0,F,Y,2013-02-04,2013-08-06,2013-06-24,,141.0,2013-06-24,141.0,1.0,DAY,HEADACHE,FULLNESS HEAD,,HEADACHE,,HLT_0064,,HLGT_0344,,NERVOUS SYSTEM DISORDERS,NERVOUS SYSTEM DISORDERS,,MILD,N,N,N,N,N,N,N,N,NONE,,RECOVERED/RESOLVED,11.0,Y,,Y,Y,,,,,
CDISCPILOT01,701,01-701-1383,Xanomeline High Dose,81.0,72.0,65-80,2.0,WHITE,1.0,F,Y,2013-02-04,2013-08-06,2013-07-17,,164.0,2013-07-26,173.0,10.0,DAY,COUGH,COUGH,,COUGH,,HLT_0701,,HLGT_0280,,"RESPIRATORY, THORACIC AND MEDIASTINAL DISORDERS","RESPIRATORY, THORACIC AND MEDIASTINAL DISORDERS",,MODERATE,N,N,N,N,N,N,N,N,NONE,,RECOVERED/RESOLVED,12.0,Y,,Y,Y,,,,,
CDISCPILOT01,701,01-701-1387,Placebo,0.0,87.0,>80,3.0,WHITE,1.0,F,Y,2014-03-12,2014-03-25,2014-03-18,,7.0,2014-03-18,7.0,1.0,DAY,DIARRHOEA,DIARRHEA,,DIARRHOEA,,HLT_0148,,HLGT_0588,,GASTROINTESTINAL DISORDERS,GASTROINTESTINAL DISORDERS,,MILD,N,N,N,N,N,N,N,N,REMOTE,,RECOVERED/RESOLVED,1.0,Y,Y,Y,Y,,,,,
CDISCPILOT01,701,01-701-1387,Placebo,0.0,87.0,>80,3.0,WHITE,1.0,F,Y,2014-03-12,2014-03-25,2014-03-18,,7.0,2014-03-18,7.0,1.0,DAY,HYPERHIDROSIS,SWEATING,,HYPERHIDROSIS,,HLT_0587,,HLGT_0005,,SKIN AND SUBCUTANEOUS TISSUE DISORDERS,SKIN AND SUBCUTANEOUS TISSUE DISORDERS,,MILD,N,N,N,N,N,N,N,N,REMOTE,,RECOVERED/RESOLVED,2.0,Y,,Y,Y,,,,,
CDISCPILOT01,701,01-701-1392,Placebo,0.0,78.0,65-80,2.0,WHITE,1.0,M,Y,2012-10-28,2013-04-28,2013-03-16,,140.0,2013-03-21,145.0,6.0,DAY,UPPER RESPIRATORY TRACT INFECTION,UPPER RESPIRATORY INFECTION,,UPPER RESPIRATORY TRACT INFECTION,,HLT_0520,,HLGT_0489,,INFECTIONS AND INFESTATIONS,INFECTIONS AND INFESTATIONS,,MILD,N,N,N,N,N,N,N,N,REMOTE,,NOT RECOVERED/NOT RESOLVED,1.0,Y,Y,Y,Y,,,,,
CDISCPILOT01,701,01-701-1392,Placebo,0.0,78.0,65-80,2.0,WHITE,1.0,M,Y,2012-10-28,2013-04-28,2013-03-16,,140.0,2013-03-21,145.0,6.0,DAY,UPPER RESPIRATORY TRACT INFECTION,UPPER RESPIRATORY INFECTION,,UPPER RESPIRATORY TRACT INFECTION,,HLT_0520,,HLGT_0489,,INFECTIONS AND INFESTATIONS,INFECTIONS AND INFESTATIONS,,MILD,N,N,N,N,N,N,N,N,REMOTE,,RECOVERED/RESOLVED,2.0,Y,,,,,,,,
CDISCPILOT01,701,01-701-1415,Placebo,0.0,85.0,>80,3.0,WHITE,1.0,M,Y,2013-09-23,2014-03-24,2013-10-21,,29.0,2013-11-04,43.0,15.0,DAY,UPPER RESPIRATORY TRACT INFECTION,UPPER RESPIRATORY INFECTION,,UPPER RESPIRATORY TRACT INFECTION,,HLT_0520,,HLGT_0489,,INFECTIONS AND INFESTATIONS,INFECTIONS AND INFESTATIONS,,MILD,N,N,N,N,N,N,N,N,NONE,,NOT RECOVERED/NOT RESOLVED,1.0,Y,Y,Y,Y,,,,,
CDISCPILOT01,701,01-701-1415,Placebo,0.0,85.0,>80,3.0,WHITE,1.0,M,Y,2013-09-23,2014-03-24,2013-10-21,,29.0,2013-11-04,43.0,15.0,DAY,UPPER RESPIRATORY TRACT INFECTION,UPPER RESPIRATORY INFECTION,,UPPER RESPIRATORY TRACT INFECTION,,HLT_0520,,HLGT_0489,,INFECTIONS AND INFESTATIONS,INFECTIONS AND INFESTATIONS,,MILD,N,N,N,N,N,N,N,N,NONE,,RECOVERED/RESOLVED,2.0,Y,,,,,,,,
CDISCPILOT01,701,01-701-1415,Placebo,0.0,85.0,>80,3.0,WHITE,1.0,M,Y,2013-09-23,2014-03-24,2013-12-02,,71.0,,,,,MICTURITION URGENCY,URINARY URGENCY,,MICTURITION URGENCY,,HLT_0294,,HLGT_0483,,RENAL AND URINARY DISORDERS,RENAL AND URINARY DISORDERS,,MILD,N,N,N,N,N,N,N,N,NONE,,NOT RECOVERED/NOT RESOLVED,3.0,Y,,Y,Y,,,,,
CDISCPILOT01,701,01-701-1415,Placebo,0.0,85.0,>80,3.0,WHITE,1.0,M,Y,2013-09-23,2014-03-24,2014-01-21,,121.0,2014-02-10,141.0,21.0,DAY,UPPER RESPIRATORY TRACT INFECTION,UPPER RESPIRATORY INFECTION,,UPPER RESPIRATORY TRACT INFECTION,,HLT_0520,,HLGT_0489,,INFECTIONS AND INFESTATIONS,INFECTIONS AND INFESTATIONS,,MILD,N,N,N,N,N,N,N,N,REMOTE,,NOT RECOVERED/NOT RESOLVED,4.0,Y,,,,,,,,
CDISCPILOT01,701,01-701-1415,Placebo,0.0,85.0,>80,3.0,WHITE,1.0,M,Y,2013-09-23,2014-03-24,2014-01-21,,121.0,2014-02-10,141.0,21.0,DAY,UPPER RESPIRATORY TRACT INFECTION,UPPER RESPIRATORY INFECTION,,UPPER RESPIRATORY TRACT INFECTION,,HLT_0520,,HLGT_0489,,INFECTIONS AND INFESTATIONS,INFECTIONS AND INFESTATIONS,,MILD,N,N,N,N,N,N,N,N,REMOTE,,RECOVERED/RESOLVED,5.0,Y,,,,,,,,
CDISCPILOT01,701,01-701-1415,Placebo,0.0,85.0,>80,3.0,WHITE,1.0,M,Y,2013-09-23,2014-03-24,2014-03-09,,168.0,2014-03-09,168.0,1.0,DAY,DIARRHOEA,DIARRHEA,,DIARRHOEA,,HLT_0148,,HLGT_0588,,GASTROINTESTINAL DISORDERS,GASTROINTESTINAL DISORDERS,,MILD,N,N,N,N,N,N,N,N,NONE,,RECOVERED/RESOLVED,6.0,Y,,Y,Y,,,,,
CDISCPILOT01,701,01-701-1442,Xanomeline Low Dose,54.0,57.0,<65,1.0,BLACK OR AFRICAN AMERICAN,2.0,F,Y,2013-10-26,2014-04-26,2014-01-10,,77.0,,,,,APPLICATION SITE PRURITUS,APPLICATION SITE ITCHING,,APPLICATION SITE PRURITUS,,HLT_0317,,HLGT_0338,,GENERAL DISORDERS AND ADMINISTRATION SITE CONDITIONS,GENERAL DISORDERS AND ADMINISTRATION SITE CONDITIONS,,MILD,N,N,N,N,N,N,N,N,PROBABLE,,NOT RECOVERED/NOT RESOLVED,1.0,Y,Y,Y,Y,,,,DERMATOLOGIC EVENTS,Y
CDISCPILOT01,701,01-701-1444,Xanomeline High Dose,81.0,63.0,<65,1.0,WHITE,1.0,M,Y,2013-01-05,2013-02-12,2013-01-19,,15.0,,,,,APPLICATION SITE ERYTHEMA,APPLICATION SITE ERYTHEMA,,APPLICATION SITE ERYTHEMA,,HLT_0617,,HLGT_0152,,GENERAL DISORDERS AND ADMINISTRATION SITE CONDITIONS,GENERAL DISORDERS AND ADMINISTRATION SITE CONDITIONS,,MILD,N,N,N,N,N,N,N,N,POSSIBLE,,NOT RECOVERED/NOT RESOLVED,1.0,Y,Y,Y,Y,,,,DERMATOLOGIC EVENTS,Y
CDISCPILOT01,701,01-701-1444,Xanomeline High Dose,81.0,63.0,<65,1.0,WHITE,1.0,M,Y,2013-01-05,2013-02-12,2013-01-19,,15.0,,,,,APPLICATION SITE PRURITUS,APPLICATION SITE ITCHING,,APPLICATION SITE PRURITUS,,HLT_0317,,HLGT_0338,,GENERAL DISORDERS AND ADMINISTRATION SITE CONDITIONS,GENERAL DISORDERS AND ADMINISTRATION SITE CONDITIONS,,MILD,N,N,N,N,N,N,N,N,PROBABLE,,NOT RECOVERED/NOT RESOLVED,2.0,Y,,,Y,,,,DERMATOLOGIC EVENTS,
CDISCPILOT01,701,01-701-1444,Xanomeline High Dose,81.0,63.0,<65,1.0,WHITE,1.0,M,Y,2013-01-05,2013-02-12,2013-01-19,,15.0,,,,,SALIVARY HYPERSECRETION,HYPERSALIVATION,,SALIVARY HYPERSECRETION,,HLT_0374,,HLGT_0488,,GASTROINTESTINAL DISORDERS,GASTROINTESTINAL DISORDERS,,MILD,N,N,N,N,N,N,N,N,POSSIBLE,,NOT RECOVERED/NOT RESOLVED,3.0,Y,,Y,Y,,,,,
CDISCPILOT01,701,01-701-1444,Xanomeline High Dose,81.0,63.0,<65,1.0,WHITE,1.0,M,Y,2013-01-05,2013-02-12,2013-01-19,,15.0,,,,,APPLICATION SITE ERYTHEMA,APPLICATION SITE ERYTHEMA,,APPLICATION SITE ERYTHEMA,,HLT_0617,,HLGT_0152,,GENERAL DISORDERS AND ADMINISTRATION SITE CONDITIONS,GENERAL DISORDERS AND ADMINISTRATION SITE CONDITIONS,,MODERATE,N,N,N,N,N,N,N,N,POSSIBLE,,NOT RECOVERED/NOT RESOLVED,4.0,Y,,,,,,,DERMATOLOGIC EVENTS,
CDISCPILOT01,701,01-701-1444,Xanomeline High Dose,81.0,63.0,<65,1.0,WHITE,1.0,M,Y,2013-01-05,2013-02-12,2013-01-19,,15.0,,,,,APPLICATION SITE PRURITUS,APPLICATION SITE ITCHING,,APPLICATION SITE PRURITUS,,HLT_0317,,HLGT_0338,,GENERAL DISORDERS AND ADMINISTRATION SITE CONDITIONS,GENERAL DISORDERS AND ADMINISTRATION SITE CONDITIONS,,MODERATE,N,N,N,N,N,N,N,N,PROBABLE,,NOT RECOVERED/NOT RESOLVED,5.0,Y,,,,,,,DERMATOLOGIC EVENTS,
CDISCPILOT01,701,01-701-1444,Xanomeline High Dose,81.0,63.0,<65,1.0,WHITE,1.0,M,Y,2013-01-05,2013-02-12,2013-02-04,,31.0,,,,,APPLICATION SITE IRRITATION,APPLICATION SITE BURNING,,APPLICATION SITE IRRITATION,,HLT_0061,,HLGT_0346,,GENERAL DISORDERS AND ADMINISTRATION SITE CONDITIONS,GENERAL DISORDERS AND ADMINISTRATION SITE CONDITIONS,,MODERATE,N,N,N,N,N,N,N,N,PROBABLE,,NOT RECOVERED/NOT RESOLVED,6.0,Y,,,Y,,,,DERMATOLOGIC EVENTS,
CDISCPILOT01,701,01-701-1444,Xanomeline High Dose,81.0,63.0,<65,1.0,WHITE,1.0,M,Y,2013-01-05,2013-02-12,2013-02-04,,31.0,,,,,APPLICATION SITE VESICLES,APPLICATION SITE BLISTER,,APPLICATION SITE VESICLES,,HLT_0180,,HLGT_0576,,GENERAL DISORDERS AND ADMINISTRATION SITE CONDITIONS,GENERAL DISORDERS AND ADMINISTRATION SITE CONDITIONS,,MODERATE,N,N,N,N,N,N,N,N,PROBABLE,,NOT RECOVERED/NOT RESOLVED,7.0,Y,,,Y,,,,DERMATOLOGIC EVENTS,
CDISCPILOT01,701,01-701-1444,Xanomeline High Dose,81.0,63.0,<65,1.0,WHITE,1.0,M,Y,2013-01-05,2013-02-12,2013-02-08,,35.0,2013-02-08,35.0,1.0,DAY,PARAESTHESIA,TINGLING,,PARAESTHESIA,,HLT_0481,,HLGT_0534,,NERVOUS SYSTEM DISORDERS,NERVOUS SYSTEM DISORDERS,,MILD,N,N,N,N,N,N,N,N,NONE,,RECOVERED/RESOLVED,8.0,Y,,Y,Y,,,,,
CDISCPILOT01,702,01-702-1082,Xanomeline Low Dose,54.0,84.0,>80,3.0,WHITE,1.0,F,Y,2013-07-26,2013-10-13,2013-07-07,,-19.0,2013-07-26,1.0,20.0,DAY,WHITE BLOOD CELL COUNT INCREASED,WBC INCREASED,,WHITE BLOOD CELL COUNT INCREASED,,HLT_0417,,HLGT_0465,,INVESTIGATIONS,INVESTIGATIONS,,MILD,N,N,N,N,N,N,N,N,NONE,,NOT RECOVERED/NOT RESOLVED,1.0,,,,,,,,,
CDISCPILOT01,702,01-702-1082,Xanomeline Low Dose,54.0,84.0,>80,3.0,WHITE,1.0,F,Y,2013-07-26,2013-10-13,2013-07-07,,-19.0,2013-07-26,1.0,20.0,DAY,NEUTROPHIL COUNT INCREASED,NEUTROPHIL COUNT INCREASED,,NEUTROPHIL COUNT INCREASED,,HLT_0326,,HLGT_0625,,INVESTIGATIONS,INVESTIGATIONS,,MILD,N,N,N,N,N,N,N,N,NONE,,NOT RECOVERED/NOT RESOLVED,2.0,,,,,,,,,
CDISCPILOT01,702,01-702-1082,Xanomeline Low Dose,54.0,84.0,>80,3.0,WHITE,1.0,F,Y,2013-07-26,2013-10-13,2013-07-07,,-19.0,2013-07-24,-2.0,18.0,DAY,URINE ANALYSIS ABNORMAL,URINE ANALYSIS ABNORMAL,,URINE ANALYSIS ABNORMAL,,HLT_0783,,HLGT_0295,,INVESTIGATIONS,INVESTIGATIONS,,MILD,N,N,N,N,N,N,N,N,NONE,,NOT RECOVERED/NOT RESOLVED,3.0,,,,,,,,,
CDISCPILOT01,702,01-702-1082,Xanomeline Low Dose,54.0,84.0,>80,3.0,WHITE,1.0,F,Y,2013-07-26,2013-10-13,2013-07-07,,-19.0,2013-07-24,-2.0,18.0,DAY,URINE ANALYSIS ABNORMAL,URINE ANALYSIS ABNORMAL,,URINE ANALYSIS ABNORMAL,,HLT_0783,,HLGT_0295,,INVESTIGATIONS,INVESTIGATIONS,,MILD,N,N,N,N,N,N,N,N,NONE,,RECOVERED/RESOLVED,4.0,,,,,,,,,
CDISCPILOT01,702,01-702-1082,Xanomeline Low Dose,54.0,84.0,>80,3.0,WHITE,1.0,F,Y,2013-07-26,2013-10-13,2013-07-07,,-19.0,2013-07-26,1.0,20.0,DAY,WHITE BLOOD CELL COUNT INCREASED,WBC INCREASED,,WHITE BLOOD CELL COUNT INCREASED,,HLT_0417,,HLGT_0465,,INVESTIGATIONS,INVESTIGATIONS,,MILD,N,N,N,N,N,N,N,N,NONE,,RECOVERED/RESOLVED,5.0,,,,,,,,,
CDISCPILOT01,702,01-702-1082,Xanomeline Low Dose,54.0,84.0,>80,3.0,WHITE,1.0,F,Y,2013-07-26,2013-10-13,2013-07-07,,-19.0,2013-07-26,1.0,20.0,DAY,NEUTROPHIL COUNT INCREASED,NEUTROPHIL COUNT INCREASED,,NEUTROPHIL COUNT INCREASED,,HLT_0326,,HLGT_0625,,INVESTIGATIONS,INVESTIGATIONS,,MILD,N,N,N,N,N,N,N,N,NONE,,RECOVERED/RESOLVED,6.0,,,,,,,,,
CDISCPILOT01,702,01-702-1082,Xanomeline Low Dose,54.0,84.0,>80,3.0,WHITE,1.0,F,Y,2013-07-26,2013-10-13,2013-09-02,,39.0,2013-09-06,43.0,5.0,DAY,RECTAL HAEMORRHAGE,RECTAL BLEEDING,,RECTAL HAEMORRHAGE,,HLT_0353,,HLGT_0755,,GASTROINTESTINAL DISORDERS,GASTROINTESTINAL DISORDERS,,MILD,N,N,N,N,N,N,N,N,NONE,,NOT RECOVERED/NOT RESOLVED,7.0,Y,Y,Y,Y,,,,,
CDISCPILOT01,702,01-702-1082,Xanomeline Low Dose,54.0,84.0,>80,3.0,WHITE,1.0,F,Y,2013-07-26,2013-10-13,2013-09-02,,39.0,2013-09-06,43.0,5.0,DAY,RECTAL HAEMORRHAGE,RECTAL BLEEDING,,RECTAL HAEMORRHAGE,,HLT_0353,,HLGT_0755,,GASTROINTESTINAL DISORDERS,GASTROINTESTINAL DISORDERS,,MILD,N,N,N,N,N,N,N,N,NONE,,RECOVERED/RESOLVED,8.0,Y,,,,,,,,
CDISCPILOT01,702,01-702-1082,Xanomeline Low Dose,54.0,84.0,>80,3.0,WHITE,1.0,F,Y,2013-07-26,2013-10-13,2013-09-09,,46.0,2013-09-24,61.0,16.0,DAY,APPLICATION SITE IRRITATION,APPLICATION SITE IRRITATION,,APPLICATION SITE IRRITATION,,HLT_0061,,HLGT_0346,,GENERAL DISORDERS AND ADMINISTRATION SITE CONDITIONS,GENERAL DISORDERS AND ADMINISTRATION SITE CONDITIONS,,MILD,N,N,N,N,N,N,N,N,PROBABLE,,RECOVERED/RESOLVED,9.0,Y,,Y,Y,,,,DERMATOLOGIC EVENTS,Y
CDISCPILOT01,702,01-702-1082,Xanomeline Low Dose,54.0,84.0,>80,3.0,WHITE,1.0,F,Y,2013-07-26,2013-10-13,2013-10-12,,79.0,2013-10-31,98.0,20.0,DAY,SKIN IRRITATION,SKIN IRRITATION,,SKIN IRRITATION,,HLT_0583,,HLGT_0384,,SKIN AND SUBCUTANEOUS TISSUE DISORDERS,SKIN AND SUBCUTANEOUS TISSUE DISORDERS,,MODERATE,N,N,N,N,N,N,N,N,PROBABLE,,RECOVERED/RESOLVED,10.0,Y,,Y,Y,,,,DERMATOLOGIC EVENTS,
CDISCPILOT01,703,01-703-1042,Placebo,0.0,64.0,<65,1.0,WHITE,1.0,M,Y,2013-03-02,2013-08-31,2013-03-04,,3.0,2013-03-05,4.0,2.0,DAY,DIARRHOEA,DIARRHEA,,DIARRHOEA,,HLT_0148,,HLGT_0588,,GASTROINTESTINAL DISORDERS,GASTROINTESTINAL DISORDERS,,MILD,N,N,N,N,N,N,N,N,POSSIBLE,,RECOVERED/RESOLVED,1.0,Y,Y,Y,Y,,,,,
CDISCPILOT01,703,01-703-1042,Placebo,0.0,64.0,<65,1.0,WHITE,1.0,M,Y,2013-03-02,2013-08-31,2013-03-05,,4.0,2013-03-06,5.0,2.0,DAY,INSOMNIA,INSOMNIA,,INSOMNIA,,HLT_0297,,HLGT_0469,,PSYCHIATRIC DISORDERS,PSYCHIATRIC DISORDERS,,MILD,N,N,N,N,N,N,N,N,REMOTE,,RECOVERED/RESOLVED,2.0,Y,,Y,Y,,,,,
CDISCPILOT01,703,01-703-1076,Xanomeline High Dose,81.0,69.0,65-80,2.0,WHITE,1.0,M,Y,2013-10-25,2013-12-24,2013-11-16,,23.0,2013-11-16,23.0,1.0,DAY,BIOPSY PROSTATE,BIOPSY OF PROSTATE,,BIOPSY PROSTATE,,HLT_0553,,HLGT_0725,,INVESTIGATIONS,INVESTIGATIONS,,MODERATE,N,N,N,N,N,N,N,N,NONE,,RECOVERED/RESOLVED,1.0,Y,Y,Y,Y,,,,,
CDISCPILOT01,703,01-703-1076,Xanomeline High Dose,81.0,69.0,65-80,2.0,WHITE,1.0,M,Y,2013-10-25,2013-12-24,2013-11-20,,27.0,,,,,BENIGN PROSTATIC HYPERPLASIA,BENIGN PROSTATIC HYPERTROPHY,,BENIGN PROSTATIC HYPERPLASIA,,HLT_0215,,HLGT_0568,,REPRODUCTIVE SYSTEM AND BREAST DISORDERS,REPRODUCTIVE SYSTEM AND BREAST DISORDERS,,MODERATE,N,N,N,N,N,N,N,N,NONE,,NOT RECOVERED/NOT RESOLVED,2.0,Y,,Y,Y,,,,,
CDISCPILOT01,703,01-703-1076,Xanomeline High Dose,81.0,69.0,65-80,2.0,WHITE,1.0,M,Y,2013-10-25,2013-12-24,,,,,,,,HYPERCHOLESTEROLAEMIA,HYPERCHOLESTEROLEMIA,,HYPERCHOLESTEROLAEMIA,,HLT_0025,,HLGT_0703,,METABOLISM AND NUTRITION DISORDERS,METABOLISM AND NUTRITION DISORDERS,,MODERATE,N,N,N,N,N,N,N,N,NONE,,NOT RECOVERED/NOT RESOLVED,3.0,,,,,,,,,
CDISCPILOT01,703,01-703-1076,Xanomeline High Dose,81.0,69.0,65-80,2.0,WHITE,1.0,M,Y,2013-10-25,2013-12-24,2013-11-23,,30.0,,,,,APPLICATION SITE PRURITUS,APPLICATION SITE ITCHING,,APPLICATION SITE PRURITUS,,HLT_0317,,HLGT_0338,,GENERAL DISORDERS AND ADMINISTRATION SITE CONDITIONS,GENERAL DISORDERS AND ADMINISTRATION SITE CONDITIONS,,MILD,N,N,N,N,N,N,N,N,PROBABLE,,NOT RECOVERED/NOT RESOLVED,4.0,Y,,Y,Y,,,,DERMATOLOGIC EVENTS,Y
CDISCPILOT01,703,01-703-1076,Xanomeline High Dose,81.0,69.0,65-80,2.0,WHITE,1.0,M,Y,2013-10-25,2013-12-24,2013-11-23,,30.0,,,,,APPLICATION SITE DERMATITIS,APPLICATION SITE RASH,,APPLICATION SITE DERMATITIS,,HLT_0343,,HLGT_0241,,GENERAL DISORDERS AND ADMINISTRATION SITE CONDITIONS,GENERAL DISORDERS AND ADMINISTRATION SITE CONDITIONS,,MILD,N,N,N,N,N,N,N,N,PROBABLE,,NOT RECOVERED/NOT RESOLVED,5.0,Y,,,Y,,,,DERMATOLOGIC EVENTS,
CDISCPILOT01,703,01-703-1076,Xanomeline High Dose,81.0,69.0,65-80,2.0,WHITE,1.0,M,Y,2013-10-25,2013-12-24,2013-11-25,,32.0,,,,,HYPERHIDROSIS,SWEATING,,HYPERHIDROSIS,,HLT_0587,,HLGT_0005,,SKIN AND SUBCUTANEOUS TISSUE DISORDERS,SKIN AND SUBCUTANEOUS TISSUE DISORDERS,,MILD,N,N,N,N,N,N,N,N,POSSIBLE,,NOT RECOVERED/NOT RESOLVED,6.0,Y,,Y,Y,,,,,
CDISCPILOT01,703,01-703-1076,Xanomeline High Dose,81.0,69.0,65-80,2.0,WHITE,1.0,M,Y,2013-10-25,2013-12-24,2013-11-23,,30.0,,,,,APPLICATION SITE PRURITUS,APPLICATION SITE ITCHING,,APPLICATION SITE PRURITUS,,HLT_0317,,HLGT_0338,,GENERAL DISORDERS AND ADMINISTRATION SITE CONDITIONS,GENERAL DISORDERS AND ADMINISTRATION SITE CONDITIONS,,MODERATE,N,N,N,N,N,N,N,N,PROBABLE,,NOT RECOVERED/NOT RESOLVED,7.0,Y,,,,,,,DERMATOLOGIC EVENTS,
CDISCPILOT01,703,01-703-1086,Xanomeline Low Dose,54.0,71.0,65-80,2.0,WHITE,1.0,M,Y,2012-09-02,2012-12-04,2012-09-13,,12.0,2013-01-02,123.0,112.0,DAY,APPLICATION SITE IRRITATION,APPLICATION SITE IRRITATION,,APPLICATION SITE IRRITATION,,HLT_0061,,HLGT_0346,,GENERAL DISORDERS AND ADMINISTRATION SITE CONDITIONS,GENERAL DISORDERS AND ADMINISTRATION SITE CONDITIONS,,MILD,N,N,N,N,N,N,N,N,PROBABLE,,NOT RECOVERED/NOT RESOLVED,1.0,Y,Y,Y,Y,,,,DERMATOLOGIC EVENTS,Y
CDISCPILOT01,703,01-703-1086,Xanomeline Low Dose,54.0,71.0,65-80,2.0,WHITE,1.0,M,Y,2012-09-02,2012-12-04,2012-09-13,,12.0,2013-01-02,123.0,112.0,DAY,APPLICATION SITE IRRITATION,APPLICATION SITE IRRITATION,,APPLICATION SITE IRRITATION,,HLT_0061,,HLGT_0346,,GENERAL DISORDERS AND ADMINISTRATION SITE CONDITIONS,GENERAL DISORDERS AND ADMINISTRATION SITE CONDITIONS,,MODERATE,N,N,N,N,N,N,N,N,PROBABLE,,NOT RECOVERED/NOT RESOLVED,2.0,Y,,,,,,,DERMATOLOGIC EVENTS,
CDISCPILOT01,703,01-703-1086,Xanomeline Low Dose,54.0,71.0,65-80,2.0,WHITE,1.0,M,Y,2012-09-02,2012-12-04,2012-09-13,,12.0,2013-01-02,123.0,112.0,DAY,APPLICATION SITE IRRITATION,APPLICATION SITE IRRITATION,,APPLICATION SITE IRRITATION,,HLT_0061,,HLGT_0346,,GENERAL DISORDERS AND ADMINISTRATION SITE CONDITIONS,GENERAL DISORDERS AND ADMINISTRATION SITE CONDITIONS,,SEVERE,N,N,N,N,N,N,N,N,PROBABLE,,NOT RECOVERED/NOT RESOLVED,3.0,Y,,,,,,,DERMATOLOGIC EVENTS,
CDISCPILOT01,703,01-703-1086,Xanomeline Low Dose,54.0,71.0,65-80,2.0,WHITE,1.0,M,Y,2012-09-02,2012-12-04,2012-10-09,,38.0,2012-10-15,44.0,7.0,DAY,CHILLS,CHILLS,,CHILLS,,HLT_0586,,HLGT_0161,,GENERAL DISORDERS AND ADMINISTRATION SITE CONDITIONS,GENERAL DISORDERS AND ADMINISTRATION SITE CONDITIONS,,MILD,N,N,N,N,N,N,N,N,POSSIBLE,,NOT RECOVERED/NOT RESOLVED,4.0,Y,,,Y,,,,,
CDISCPILOT01,703,01-703-1086,Xanomeline Low Dose,54.0,71.0,65-80,2.0,WHITE,1.0,M,Y,2012-09-02,2012-12-04,2012-10-09,,38.0,2012-10-15,44.0,7.0,DAY,CHILLS,CHILLS,,CHILLS,,HLT_0586,,HLGT_0161,,GENERAL DISORDERS AND ADMINISTRATION SITE CONDITIONS,GENERAL DISORDERS AND ADMINISTRATION SITE CONDITIONS,,MILD,N,N,N,N,N,N,N,N,POSSIBLE,,RECOVERED/RESOLVED,5.0,Y,,,,,,,,
CDISCPILOT01,703,01-703-1086,Xanomeline Low Dose,54.0,71.0,65-80,2.0,WHITE,1.0,M,Y,2012-09-02,2012-12-04,2012-09-13,,12.0,2013-01-02,123.0,112.0,DAY,APPLICATION SITE IRRITATION,APPLICATION SITE IRRITATION,,APPLICATION SITE IRRITATION,,HLT_0061,,HLGT_0346,,GENERAL DISORDERS AND ADMINISTRATION SITE CONDITIONS,GENERAL DISORDERS AND ADMINISTRATION SITE CONDITIONS,,MILD,N,N,N,N,N,N,N,N,PROBABLE,,RECOVERED/RESOLVED,6.0,Y,,,,,,,DERMATOLOGIC EVENTS,
CDISCPILOT01,703,01-703-1100,Placebo,0.0,84.0,>80,3.0,WHITE,1.0,F,Y,2013-03-13,2013-09-14,2013-04-05,,24.0,2013-04-16,35.0,12.0,DAY,APPLICATION SITE IRRITATION,APPLICATION SITE IRRITATION,,APPLICATION SITE IRRITATION,,HLT_0061,,HLGT_0346,,GENERAL DISORDERS AND ADMINISTRATION SITE CONDITIONS,GENERAL DISORDERS AND ADMINISTRATION SITE CONDITIONS,,MODERATE,N,N,N,N,N,N,N,N,PROBABLE,,NOT RECOVERED/NOT RESOLVED,1.0,Y,Y,Y,Y,,,,DERMATOLOGIC EVENTS,Y
CDISCPILOT01,703,01-703-1100,Placebo,0.0,84.0,>80,3.0,WHITE,1.0,F,Y,2013-03-13,2013-09-14,2013-04-05,,24.0,2013-04-16,35.0,12.0,DAY,APPLICATION SITE IRRITATION,APPLICATION SITE IRRITATION,,APPLICATION SITE IRRITATION,,HLT_0061,,HLGT_0346,,GENERAL DISORDERS AND ADMINISTRATION SITE CONDITIONS,GENERAL DISORDERS AND ADMINISTRATION SITE CONDITIONS,,MILD,N,N,N,N,N,N,N,N,PROBABLE,,NOT RECOVERED/NOT RESOLVED,2.0,Y,,,,,,,DERMATOLOGIC EVENTS,
CDISCPILOT01,703,01-703-1100,Placebo,0.0,84.0,>80,3.0,WHITE,1.0,F,Y,2013-03-13,2013-09-14,2013-04-05,,24.0,2013-04-16,35.0,12.0,DAY,APPLICATION SITE IRRITATION,APPLICATION SITE IRRITATION,,APPLICATION SITE IRRITATION,,HLT_0061,,HLGT_0346,,GENERAL DISORDERS AND ADMINISTRATION SITE CONDITIONS,GENERAL DISORDERS AND ADMINISTRATION SITE CONDITIONS,,MILD,N,N,N,N,N,N,N,N,PROBABLE,,RECOVERED/RESOLVED,3.0,Y,,,,,,,DERMATOLOGIC EVENTS,
CDISCPILOT01,703,01-703-1100,Placebo,0.0,84.0,>80,3.0,WHITE,1.0,F,Y,2013-03-13,2013-09-14,2013-04-25,,44.0,2013-04-25,44.0,1.0,DAY,CATARACT OPERATION,CATARACT EXTRACTION,,CATARACT OPERATION,,HLT_0432,,HLGT_0058,,SURGICAL AND MEDICAL PROCEDURES,SURGICAL AND MEDICAL PROCEDURES,,MODERATE,N,N,N,N,N,N,N,N,NONE,,RECOVERED/RESOLVED,4.0,Y,,Y,Y,,,,,
CDISCPILOT01,703,01-703-1100,Placebo,0.0,84.0,>80,3.0,WHITE,1.0,F,Y,2013-03-13,2013-09-14,2013-05-27,,76.0,2013-06-03,83.0,8.0,DAY,UPPER RESPIRATORY TRACT INFECTION,UPPER RESPIRATORY INFECTION,,UPPER RESPIRATORY TRACT INFECTION,,HLT_0520,,HLGT_0489,,INFECTIONS AND INFESTATIONS,INFECTIONS AND INFESTATIONS,,MODERATE,N,N,N,N,N,N,N,N,REMOTE,,RECOVERED/RESOLVED,5.0,Y,,Y,Y,,,,,
CDISCPILOT01,703,01-703-1100,Placebo,0.0,84.0,>80,3.0,WHITE,1.0,F,Y,2013-03-13,2013-09-14,2013-02-28,,-13.0,2013-09-14,186.0,199.0,DAY,OEDEMA PERIPHERAL,LEG EDEMA,,OEDEMA PERIPHERAL,,HLT_0661,,HLGT_0137,,GENERAL DISORDERS AND ADMINISTRATION SITE CONDITIONS,GENERAL DISORDERS AND ADMINISTRATION SITE CONDITIONS,,MODERATE,N,N,N,N,N,N,N,N,REMOTE,,NOT RECOVERED/NOT RESOLVED,6.0,,,,,,,,,
CDISCPILOT01,703,01-703-1100,Placebo,0.0,84.0,>80,3.0,WHITE,1.0,F,Y,2013-03-13,2013-09-14,2013-07-17,,127.0,2013-09-14,186.0,60.0,DAY,OEDEMA PERIPHERAL,LEG EDEMA,,OEDEMA PERIPHERAL,,HLT_0661,,HLGT_0137,,GENERAL DISORDERS AND ADMINISTRATION SITE CONDITIONS,GENERAL DISORDERS AND ADMINISTRATION SITE CONDITIONS,,MILD,N,N,N,N,N,N,N,N,REMOTE,,NOT RECOVERED/NOT RESOLVED,7.0,Y,,,Y,,,,,
CDISCPILOT01,703,01-703-1100,Placebo,0.0,84.0,>80,3.0,WHITE,1.0,F,Y,2013-03-13,2013-09-14,2013-02-28,,-13.0,2013-09-14,186.0,199.0,DAY,OEDEMA PERIPHERAL,LEG EDEMA,,OEDEMA PERIPHERAL,,HLT_0661,,HLGT_0137,,GENERAL DISORDERS AND ADMINISTRATION SITE CONDITIONS,GENERAL DISORDERS AND ADMINISTRATION SITE CONDITIONS,,MODERATE,N,N,N,N,N,N,N,N,REMOTE,,RECOVERED/RESOLVED,8.0,,,,,,,,,
CDISCPILOT01,703,01-703-1100,Placebo,0.0,84.0,>80,3.0,WHITE,1.0,F,Y,2013-03-13,2013-09-14,2013-07-17,,127.0,2013-09-14,186.0,60.0,DAY,OEDEMA PERIPHERAL,LEG EDEMA,,OEDEMA PERIPHERAL,,HLT_0661,,HLGT_0137,,GENERAL DISORDERS AND ADMINISTRATION SITE CONDITIONS,GENERAL DISORDERS AND ADMINISTRATION SITE CONDITIONS,,MILD,N,N,N,N,N,N,N,N,REMOTE,,RECOVERED/RESOLVED,9.0,Y,,,,,,,,
CDISCPILOT01,703,01-703-1119,Xanomeline Low Dose,54.0,81.0,>80,3.0,WHITE,1.0,F,Y,2013-02-20,2013-06-13,2013-03-16,,25.0,,,,,APPLICATION SITE IRRITATION,APPLICATION SITE IRRITATION,,APPLICATION SITE IRRITATION,,HLT_0061,,HLGT_0346,,GENERAL DISORDERS AND ADMINISTRATION SITE CONDITIONS,GENERAL DISORDERS AND ADMINISTRATION SITE CONDITIONS,,MODERATE,N,N,N,N,N,N,N,N,PROBABLE,,NOT RECOVERED/NOT RESOLVED,1.0,Y,Y,Y,Y,,,,DERMATOLOGIC EVENTS,Y
CDISCPILOT01,703,01-703-1119,Xanomeline Low Dose,54.0,81.0,>80,3.0,WHITE,1.0,F,Y,2013-02-20,2013-06-13,2013-03-16,,25.0,,,,,APPLICATION SITE IRRITATION,APPLICATION SITE IRRITATION,,APPLICATION SITE IRRITATION,,HLT_0061,,HLGT_0346,,GENERAL DISORDERS AND ADMINISTRATION SITE CONDITIONS,GENERAL DISORDERS AND ADMINISTRATION SITE CONDITIONS,,SEVERE,N,N,N,N,N,N,N,N,PROBABLE,,NOT RECOVERED/NOT RESOLVED,2.0,Y,,,,,,,DERMATOLOGIC EVENTS,
CDISCPILOT01,703,01-703-1119,Xanomeline Low Dose,54.0,81.0,>80,3.0,WHITE,1.0,F,Y,2013-02-20,2013-06-13,2013-05-04,,74.0,,,,,PRURITUS,ITCHING,,PRURITUS,,HLT_0778,,HLGT_0695,,SKIN AND SUBCUTANEOUS TISSUE DISORDERS,SKIN AND SUBCUTANEOUS TISSUE DISORDERS,,MODERATE,N,N,N,N,N,N,N,N,PROBABLE,,NOT RECOVERED/NOT RESOLVED,3.0,Y,,Y,Y,,,,DERMATOLOGIC EVENTS,
CDISCPILOT01,703,01-703-1119,Xanomeline Low Dose,54.0,81.0,>80,3.0,WHITE,1.0,F,Y,2013-02-20,2013-06-13,2013-05-04,,74.0,,,,,PRURITUS,ITCHING,,PRURITUS,,HLT_0778,,HLGT_0695,,SKIN AND SUBCUTANEOUS TISSUE DISORDERS,SKIN AND SUBCUTANEOUS TISSUE DISORDERS,,SEVERE,N,N,N,N,N,N,N,N,PROBABLE,,NOT RECOVERED/NOT RESOLVED,4.0,Y,,,,,,,DERMATOLOGIC EVENTS,
CDISCPILOT01,703,01-703-1175,Placebo,0.0,75.0,65-80,2.0,WHITE,1.0,M,Y,2013-12-20,2013-12-26,2013-12-18,,-2.0,,,,,ATRIOVENTRICULAR BLOCK SECOND DEGREE,HEART BLOCK SECOND DEGREE,,ATRIOVENTRICULAR BLOCK SECOND DEGREE,,HLT_0415,,HLGT_0086,,CARDIAC DISORDERS,CARDIAC DISORDERS,,SEVERE,N,N,N,N,N,N,N,N,NONE,,NOT RECOVERED/NOT RESOLVED,1.0,,,,,,,,,
CDISCPILOT01,703,01-703-1182,Xanomeline Low Dose,54.0,84.0,>80,3.0,WHITE,1.0,M,Y,2013-10-17,2013-12-11,2013-10-31,,15.0,,,,,APPLICATION SITE ERYTHEMA,APPLICATION SITE REDNESS,,APPLICATION SITE ERYTHEMA,,HLT_0617,,HLGT_0152,,GENERAL DISORDERS AND ADMINISTRATION SITE CONDITIONS,GENERAL DISORDERS AND ADMINISTRATION SITE CONDITIONS,,MILD,N,N,N,N,N,N,N,N,POSSIBLE,,NOT RECOVERED/NOT RESOLVED,1.0,Y,Y,Y,Y,,,,DERMATOLOGIC EVENTS,Y
CDISCPILOT01,703,01-703-1182,Xanomeline Low Dose,54.0,84.0,>80,3.0,WHITE,1.0,M,Y,2013-10-17,2013-12-11,2013-10-31,,15.0,,,,,APPLICATION SITE ERYTHEMA,APPLICATION SITE REDNESS,,APPLICATION SITE ERYTHEMA,,HLT_0617,,HLGT_0152,,GENERAL DISORDERS AND ADMINISTRATION SITE CONDITIONS,GENERAL DISORDERS AND ADMINISTRATION SITE CONDITIONS,,MODERATE,N,N,N,N,N,N,N,N,POSSIBLE,,NOT RECOVERED/NOT RESOLVED,2.0,Y,,,,,,,DERMATOLOGIC EVENTS,
CDISCPILOT01,703,01-703-1182,Xanomeline Low Dose,54.0,84.0,>80,3.0,WHITE,1.0,M,Y,2013-10-17,2013-12-11,2013-11-22,,37.0,,,,,SOMNOLENCE,DROWSINESS,,SOMNOLENCE,,HLT_0160,,HLGT_0254,,NERVOUS SYSTEM DISORDERS,NERVOUS SYSTEM DISORDERS,,MILD,N,N,N,N,N,N,N,N,REMOTE,,NOT RECOVERED/NOT RESOLVED,3.0,Y,,Y,Y,,,,,
CDISCPILOT01,703,01-703-1182,Xanomeline Low Dose,54.0,84.0,>80,3.0,WHITE,1.0,M,Y,2013-10-17,2013-12-11,2013-11-22,,37.0,,,,,SOMNOLENCE,DROWSINESS,,SOMNOLENCE,,HLT_0160,,HLGT_0254,,NERVOUS SYSTEM DISORDERS,NERVOUS SYSTEM DISORDERS,,MODERATE,N,N,N,N,N,N,N,N,REMOTE,,NOT RECOVERED/NOT RESOLVED,4.0,Y,,,,,,,,
CDISCPILOT01,703,01-703-1210,Placebo,0.0,72.0,65-80,2.0,WHITE,1.0,F,Y,2013-03-16,2013-09-06,2013-04-02,,18.0,,,,,DISORIENTATION,DISORIENTATION,,DISORIENTATION,,HLT_0299,,HLGT_0307,,PSYCHIATRIC DISORDERS,PSYCHIATRIC DISORDERS,,MILD,N,N,N,N,N,N,N,N,REMOTE,,NOT RECOVERED/NOT RESOLVED,1.0,Y,Y,Y,Y,,,,,
CDISCPILOT01,703,01-703-1210,Placebo,0.0,72.0,65-80,2.0,WHITE,1.0,F,Y,2013-03-16,2013-09-06,2013-05-04,,50.0,,,,,DECREASED APPETITE,DECREASED APPETITE,,DECREASED APPETITE,,HLT_0574,,HLGT_0231,,METABOLISM AND NUTRITION DISORDERS,METABOLISM AND NUTRITION DISORDERS,,MILD,N,N,N,N,N,N,N,N,POSSIBLE,,NOT RECOVERED/NOT RESOLVED,2.0,Y,,Y,Y,,,,,
CDISCPILOT01,703,01-703-1210,Placebo,0.0,72.0,65-80,2.0,WHITE,1.0,F,Y,2013-03-16,2013-09-06,2013-05-04,,50.0,,,,,DECREASED APPETITE,DECREASED APPETITE,,DECREASED APPETITE,,HLT_0574,,HLGT_0231,,METABOLISM AND NUTRITION DISORDERS,METABOLISM AND NUTRITION DISORDERS,,MODERATE,N,N,N,N,N,N,N,N,POSSIBLE,,NOT RECOVERED/NOT RESOLVED,3.0,Y,,,,,,,,
CDISCPILOT01,703,01-703-1258,Xanomeline High Dose,81.0,78.0,65-80,2.0,WHITE,1.0,F,Y,2012-07-20,2013-01-11,2012-08-11,,23.0,2012-08-19,31.0,9.0,DAY,UPPER RESPIRATORY TRACT INFECTION,UPPER RESPIRATORY INFECTION,,UPPER RESPIRATORY TRACT INFECTION,,HLT_0520,,HLGT_0489,,INFECTIONS AND INFESTATIONS,INFECTIONS AND INFESTATIONS,,MILD,N,N,N,N,N,N,N,N,NONE,,NOT RECOVERED/NOT RESOLVED,1.0,Y,Y,Y,Y,,,,,
CDISCPILOT01,703,01-703-1258,Xanomeline High Dose,81.0,78.0,65-80,2.0,WHITE,1.0,F,Y,2012-07-20,2013-01-11,,,,,,,,DIZZINESS,DIZZINESS,,DIZZINESS,,HLT_0619,,HLGT_0751,,NERVOUS SYSTEM DISORDERS,NERVOUS SYSTEM DISORDERS,,MODERATE,N,N,N,N,N,N,N,N,NONE,,NOT RECOVERED/NOT RESOLVED,2.0,,,,,,,,,
CDISCPILOT01,703,01-703-1258,Xanomeline High Dose,81.0,78.0,65-80,2.0,WHITE,1.0,F,Y,2012-07-20,2013-01-11,2012-08-11,,23.0,2012-08-19,31.0,9.0,DAY,UPPER RESPIRATORY TRACT INFECTION,UPPER RESPIRATORY INFECTION,,UPPER RESPIRATORY TRACT INFECTION,,HLT_0520,,HLGT_0489,,INFECTIONS AND INFESTATIONS,INFECTIONS AND INFESTATIONS,,MILD,N,N,N,N,N,N,N,N,NONE,,RECOVERED/RESOLVED,3.0,Y,,,,,,,,
CDISCPILOT01,703,01-703-1258,Xanomeline High Dose,81.0,78.0,65-80,2.0,WHITE,1.0,F,Y,2012-07-20,2013-01-11,2012-09-04,,47.0,2013-01-25,190.0,144.0,DAY,APPLICATION SITE DERMATITIS,APPLICATION SITE RASH,,APPLICATION SITE DERMATITIS,,HLT_0343,,HLGT_0241,,GENERAL DISORDERS AND ADMINISTRATION SITE CONDITIONS,GENERAL DISORDERS AND ADMINISTRATION SITE CONDITIONS,,MILD,N,N,N,N,N,N,N,N,PROBABLE,,NOT RECOVERED/NOT RESOLVED,4.0,Y,,Y,Y,,,,DERMATOLOGIC EVENTS,Y
CDISCPILOT01,703,01-703-1258,Xanomeline High Dose,81.0,78.0,65-80,2.0,WHITE,1.0,F,Y,2012-07-20,2013-01-11,,,,,,,,DIZZINESS,DIZZINESS,,DIZZINESS,,HLT_0619,,HLGT_0751,,NERVOUS SYSTEM DISORDERS,NERVOUS SYSTEM DISORDERS,,MILD,N,N,N,N,N,N,N,N,NONE,,NOT RECOVERED/NOT RESOLVED,5.0,,,,,,,,,
CDISCPILOT01,703,01-703-1258,Xanomeline High Dose,81.0,78.0,65-80,2.0,WHITE,1.0,F,Y,2012-07-20,2013-01-11,2012-09-04,,47.0,2013-01-25,190.0,144.0,DAY,APPLICATION SITE DERMATITIS,APPLICATION SITE RASH,,APPLICATION SITE DERMATITIS,,HLT_0343,,HLGT_0241,,GENERAL DISORDERS AND ADMINISTRATION SITE CONDITIONS,GENERAL DISORDERS AND ADMINISTRATION SITE CONDITIONS,,MODERATE,N,N,N,N,N,N,N,N,PROBABLE,,NOT RECOVERED/NOT RESOLVED,6.0,Y,,,,,,,DERMATOLOGIC EVENTS,
CDISCPILOT01,703,01-703-1258,Xanomeline High Dose,81.0,78.0,65-80,2.0,WHITE,1.0,F,Y,2012-07-20,2013-01-11,2012-09-04,,47.0,2013-01-25,190.0,144.0,DAY,APPLICATION SITE DERMATITIS,APPLICATION SITE RASH,,APPLICATION SITE DERMATITIS,,HLT_0343,,HLGT_0241,,GENERAL DISORDERS AND ADMINISTRATION SITE CONDITIONS,GENERAL DISORDERS AND ADMINISTRATION SITE CONDITIONS,,MILD,N,N,N,N,N,N,N,N,PROBABLE,,RECOVERED/RESOLVED,7.0,Y,,,,,,,DERMATOLOGIC EVENTS,
CDISCPILOT01,703,01-703-1295,Xanomeline High Dose,81.0,88.0,>80,3.0,WHITE,1.0,F,Y,2013-11-21,2014-04-19,2013-12-28,,38.0,,,,,ARTHRITIS,ARTHRITIS,,ARTHRITIS,,HLT_0019,,HLGT_0587,,MUSCULOSKELETAL AND CONNECTIVE TISSUE DISORDERS,MUSCULOSKELETAL AND CONNECTIVE TISSUE DISORDERS,,MODERATE,N,N,N,N,N,N,N,N,NONE,,NOT RECOVERED/NOT RESOLVED,1.0,Y,Y,Y,Y,,,,,
CDISCPILOT01,703,01-703-1299,Placebo,0.0,81.0,>80,3.0,WHITE,1.0,F,Y,2012-09-12,2013-03-13,2012-09-27,,16.0,2012-10-06,25.0,10.0,DAY,UPPER RESPIRATORY TRACT INFECTION,UPPER RESPIRATORY INFECTION,,UPPER RESPIRATORY TRACT INFECTION,,HLT_0520,,HLGT_0489,,INFECTIONS AND INFESTATIONS,INFECTIONS AND INFESTATIONS,,MILD,N,N,N,N,N,N,N,N,NONE,,NOT RECOVERED/NOT RESOLVED,1.0,Y,Y,Y,Y,,,,,
CDISCPILOT01,703,01-703-1299,Placebo,0.0,81.0,>80,3.0,WHITE,1.0,F,Y,2012-09-12,2013-03-13,2012-09-27,,16.0,2012-10-06,25.0,10.0,DAY,UPPER RESPIRATORY TRACT INFECTION,UPPER RESPIRATORY INFECTION,,UPPER RESPIRATORY TRACT INFECTION,,HLT_0520,,HLGT_0489,,INFECTIONS AND INFESTATIONS,INFECTIONS AND INFESTATIONS,,MILD,N,N,N,N,N,N,N,N,NONE,,RECOVERED/RESOLVED,2.0,Y,,,,,,,,
CDISCPILOT01,703,01-703-1299,Placebo,0.0,81.0,>80,3.0,WHITE,1.0,F,Y,2012-09-12,2013-03-13,,,,,,,,GLAUCOMA,GLAUCOMA,,GLAUCOMA,,HLT_0556,,HLGT_0734,,EYE DISORDERS,EYE DISORDERS,,MODERATE,N,N,N,N,N,N,N,N,NONE,,NOT RECOVERED/NOT RESOLVED,3.0,,,,,,,,,
CDISCPILOT01,703,01-703-1299,Placebo,0.0,81.0,>80,3.0,WHITE,1.0,F,Y,2012-09-12,2013-03-13,2013-03-01,,171.0,,,,,HYPOTENSION,HYPOTENSION,,HYPOTENSION,,HLT_0761,,HLGT_0412,,VASCULAR DISORDERS,VASCULAR DISORDERS,,MILD,N,N,N,N,N,N,N,N,REMOTE,,NOT RECOVERED/NOT RESOLVED,4.0,Y,,Y,Y,,,,,
CDISCPILOT01,703,01-703-1299,Placebo,0.0,81.0,>80,3.0,WHITE,1.0,F,Y,2012-09-12,2013-03-13,2013-03-01,,171.0,,,,,TACHYCARDIA,TACHYCARDIA,,TACHYCARDIA,,HLT_0082,,HLGT_0574,,CARDIAC DISORDERS,CARDIAC DISORDERS,,MILD,N,N,N,N,N,N,N,N,REMOTE,,NOT RECOVERED/NOT RESOLVED,5.0,Y,,Y,Y,,,,,
CDISCPILOT01,703,01-703-1299,Placebo,0.0,81.0,>80,3.0,WHITE,1.0,F,Y,2012-09-12,2013-03-13,2013-03-01,,171.0,,,,,HYPOTENSION,HYPOTENSION,,HYPOTENSION,,HLT_0761,,HLGT_0412,,VASCULAR DISORDERS,VASCULAR DISORDERS,,MODERATE,N,N,N,N,N,N,N,N,REMOTE,,NOT RECOVERED/NOT RESOLVED,6.0,Y,,,,,,,,
CDISCPILOT01,703,01-703-1299,Placebo,0.0,81.0,>80,3.0,WHITE,1.0,F,Y,2012-09-12,2013-03-13,2013-03-01,,171.0,,,,,TACHYCARDIA,TACHYCARDIA,,TACHYCARDIA,,HLT_0082,,HLGT_0574,,CARDIAC DISORDERS,CARDIAC DISORDERS,,MODERATE,N,N,N,N,N,N,N,N,REMOTE,,NOT RECOVERED/NOT RESOLVED,7.0,Y,,,,,,,,
CDISCPILOT01,703,01-703-1299,Placebo,0.0,81.0,>80,3.0,WHITE,1.0,F,Y,2012-09-12,2013-03-13,2013-03-13,,183.0,,,,,MYOCARDIAL INFARCTION,MYOCARDIAL INFARCTION,,MYOCARDIAL INFARCTION,,HLT_0649,,HLGT_0688,,CARDIAC DISORDERS,CARDIAC DISORDERS,,MODERATE,N,N,N,N,N,N,N,N,REMOTE,,NOT RECOVERED/NOT RESOLVED,8.0,Y,,,Y,,,,,
CDISCPILOT01,703,01-703-1335,Xanomeline High Dose,81.0,67.0,65-80,2.0,BLACK OR AFRICAN AMERICAN,2.0,F,Y,2014-03-17,2014-05-07,2014-03-15,,-2.0,2014-03-30,14.0,16.0,DAY,ATRIOVENTRICULAR BLOCK SECOND DEGREE,AV BLOCK SECOND DEGREE,,ATRIOVENTRICULAR BLOCK SECOND DEGREE,,HLT_0415,,HLGT_0086,,CARDIAC DISORDERS,CARDIAC DISORDERS,,MILD,N,N,N,N,N,N,N,N,NONE,,NOT RECOVERED/NOT RESOLVED,1.0,,,,,,,,,
CDISCPILOT01,703,01-703-1335,Xanomeline High Dose,81.0,67.0,65-80,2.0,BLACK OR AFRICAN AMERICAN,2.0,F,Y,2014-03-17,2014-05-07,2014-03-15,,-2.0,2014-03-30,14.0,16.0,DAY,ATRIOVENTRICULAR BLOCK SECOND DEGREE,AV BLOCK SECOND DEGREE,,ATRIOVENTRICULAR BLOCK SECOND DEGREE,,HLT_0415,,HLGT_0086,,CARDIAC DISORDERS,CARDIAC DISORDERS,,MILD,N,N,N,N,N,N,N,N,NONE,,RECOVERED/RESOLVED,2.0,,,,,,,,,
CDISCPILOT01,703,01-703-1403,Xanomeline High Dose,81.0,67.0,65-80,2.0,WHITE,1.0,M,Y,2012-12-12,2012-12-13,2012-12-12,,1.0,2012-12-19,8.0,8.0,DAY,WEIGHT DECREASED,WEIGHT LOSS,,WEIGHT DECREASED,,HLT_0158,,HLGT_0778,,INVESTIGATIONS,INVESTIGATIONS,,MODERATE,N,N,N,N,N,N,N,N,NONE,,NOT RECOVERED/NOT RESOLVED,1.0,Y,Y,Y,Y,,,,,
CDISCPILOT01,703,01-703-1403,Xanomeline High Dose,81.0,67.0,65-80,2.0,WHITE,1.0,M,Y,2012-12-12,2012-12-13,2012-12-13,,2.0,2012-12-14,3.0,2.0,DAY,DIARRHOEA,DIARRHEA,,DIARRHOEA,,HLT_0148,,HLGT_0588,,GASTROINTESTINAL DISORDERS,GASTROINTESTINAL DISORDERS,,MODERATE,N,N,N,N,N,N,N,N,PROBABLE,,RECOVERED/RESOLVED,2.0,Y,,Y,Y,,,,,
CDISCPILOT01,703,01-703-1403,Xanomeline High Dose,81.0,67.0,65-80,2.0,WHITE,1.0,M,Y,2012-12-12,2012-12-13,2012-12-13,,2.0,2012-12-14,3.0,2.0,DAY,VOMITING,VOMITING,,VOMITING,,HLT_0016,,HLGT_0350,,GASTROINTESTINAL DISORDERS,GASTROINTESTINAL DISORDERS,,MODERATE,N,N,N,N,N,N,N,N,PROBABLE,,RECOVERED/RESOLVED,3.0,Y,,,Y,,,,,
CDISCPILOT01,703,01-703-1403,Xanomeline High Dose,81.0,67.0,65-80,2.0,WHITE,1.0,M,Y,2012-12-12,2012-12-13,2012-12-15,,4.0,2012-12-16,5.0,2.0,DAY,CHEST DISCOMFORT,CHEST TIGHTNESS,,CHEST DISCOMFORT,,HLT_0593,,HLGT_0441,,GENERAL DISORDERS AND ADMINISTRATION SITE CONDITIONS,GENERAL DISORDERS AND ADMINISTRATION SITE CONDITIONS,,MILD,N,N,N,N,N,N,N,N,PROBABLE,,RECOVERED/RESOLVED,4.0,Y,,Y,Y,,,,,
CDISCPILOT01,703,01-703-1403,Xanomeline High Dose,81.0,67.0,65-80,2.0,WHITE,1.0,M,Y,2012-12-12,2012-12-13,2012-12-12,,1.0,2012-12-19,8.0,8.0,DAY,WEIGHT DECREASED,WEIGHT LOSS,,WEIGHT DECREASED,,HLT_0158,,HLGT_0778,,INVESTIGATIONS,INVESTIGATIONS,,MODERATE,N,N,N,N,N,N,N,N,NONE,,RECOVERED/RESOLVED,5.0,Y,,,,,,,,
CDISCPILOT01,703,01-703-1439,Xanomeline High Dose,81.0,76.0,65-80,2.0,WHITE,1.0,F,Y,2014-03-12,2014-09-11,2014-04-24,,44.0,,,,,APPLICATION SITE IRRITATION,APPLICATION SITE IRRITATION,,APPLICATION SITE IRRITATION,,HLT_0061,,HLGT_0346,,GENERAL DISORDERS AND ADMINISTRATION SITE CONDITIONS,GENERAL DISORDERS AND ADMINISTRATION SITE CONDITIONS,,MILD,N,N,N,N,N,N,N,N,PROBABLE,,NOT RECOVERED/NOT RESOLVED,1.0,Y,Y,Y,Y,,,,DERMATOLOGIC EVENTS,Y
CDISCPILOT01,703,01-703-1439,Xanomeline High Dose,81.0,76.0,65-80,2.0,WHITE,1.0,F,Y,2014-03-12,2014-09-11,2014-04-24,,44.0,,,,,APPLICATION SITE IRRITATION,APPLICATION SITE IRRITATION,,APPLICATION SITE IRRITATION,,HLT_0061,,HLGT_0346,,GENERAL DISORDERS AND ADMINISTRATION SITE CONDITIONS,GENERAL DISORDERS AND ADMINISTRATION SITE CONDITIONS,,MODERATE,N,N,N,N,N,N,N,N,PROBABLE,,NOT RECOVERED/NOT RESOLVED,2.0,Y,,,,,,,DERMATOLOGIC EVENTS,
CDISCPILOT01,704,01-704-1008,Xanomeline High Dose,81.0,76.0,65-80,2.0,WHITE,1.0,F,Y,2013-01-13,2013-02-21,2013-01-30,,18.0,,,,,HYPERHIDROSIS,SWEATING INCREASED,,HYPERHIDROSIS,,HLT_0587,,HLGT_0005,,SKIN AND SUBCUTANEOUS TISSUE DISORDERS,SKIN AND SUBCUTANEOUS TISSUE DISORDERS,,MILD,N,N,N,N,N,N,N,N,POSSIBLE,,NOT RECOVERED/NOT RESOLVED,1.0,Y,Y,Y,Y,,,,,
CDISCPILOT01,704,01-704-1008,Xanomeline High Dose,81.0,76.0,65-80,2.0,WHITE,1.0,F,Y,2013-01-13,2013-02-21,2013-02-21,,40.0,2013-02-21,40.0,1.0,DAY,TRANSIENT ISCHAEMIC ATTACK,TRANSIENT ISCHEMIC ATTACKS,,TRANSIENT ISCHAEMIC ATTACK,,HLT_0041,,HLGT_0433,,NERVOUS SYSTEM DISORDERS,NERVOUS SYSTEM DISORDERS,,SEVERE,N,N,N,N,N,Y,N,N,NONE,,RECOVERED/RESOLVED,2.0,Y,,Y,Y,,,,,
CDISCPILOT01,704,01-704-1008,Xanomeline High Dose,81.0,76.0,65-80,2.0,WHITE,1.0,F,Y,2013-01-13,2013-02-21,2013-02-25,,44.0,,,,,SINUS BRADYCARDIA,SINUS BRADYCARDIA,,SINUS BRADYCARDIA,,HLT_0644,,HLGT_0500,,CARDIAC DISORDERS,CARDIAC DISORDERS,,MODERATE,N,N,N,N,N,N,N,N,NONE,,NOT RECOVERED/NOT RESOLVED,3.0,Y,,Y,Y,,,,,
CDISCPILOT01,704,01-704-1009,Xanomeline Low Dose,54.0,83.0,>80,3.0,WHITE,1.0,M,Y,2013-08-27,2013-09-25,2013-09-05,,10.0,,,,,FATIGUE,FATIGUE,,FATIGUE,,HLT_0043,,HLGT_0181,,GENERAL DISORDERS AND ADMINISTRATION SITE CONDITIONS,GENERAL DISORDERS AND ADMINISTRATION SITE CONDITIONS,,MILD,N,N,N,N,N,N,N,N,REMOTE,,NOT RECOVERED/NOT RESOLVED,1.0,Y,Y,Y,Y,,,,,
CDISCPILOT01,704,01-704-1009,Xanomeline Low Dose,54.0,83.0,>80,3.0,WHITE,1.0,M,Y,2013-08-27,2013-09-25,2013-09-05,,10.0,2013-09-27,32.0,23.0,DAY,MALAISE,MALAISE,,MALAISE,,HLT_0456,,HLGT_0178,,GENERAL DISORDERS AND ADMINISTRATION SITE CONDITIONS,GENERAL DISORDERS AND ADMINISTRATION SITE CONDITIONS,,MILD,N,N,N,N,N,N,N,N,POSSIBLE,,NOT RECOVERED/NOT RESOLVED,2.0,Y,,,Y,,,,,
CDISCPILOT01,704,01-704-1009,Xanomeline Low Dose,54.0,83.0,>80,3.0,WHITE,1.0,M,Y,2013-08-27,2013-09-25,2013-09-14,,19.0,,,,,RASH,RASH,,RASH,,HLT_0762,,HLGT_0198,,SKIN AND SUBCUTANEOUS TISSUE DISORDERS,SKIN AND SUBCUTANEOUS TISSUE DISORDERS,,MILD,N,N,N,N,N,N,N,N,POSSIBLE,,NOT RECOVERED/NOT RESOLVED,3.0,Y,,Y,Y,,,,DERMATOLOGIC EVENTS,Y
CDISCPILOT01,704,01-704-1009,Xanomeline Low Dose,54.0,83.0,>80,3.0,WHITE,1.0,M,Y,2013-08-27,2013-09-25,2013-09-05,,10.0,2013-09-27,32.0,23.0,DAY,MALAISE,MALAISE,,MALAISE,,HLT_0456,,HLGT_0178,,GENERAL DISORDERS AND ADMINISTRATION SITE CONDITIONS,GENERAL DISORDERS AND ADMINISTRATION SITE CONDITIONS,,MILD,N,N,N,N,N,N,N,N,POSSIBLE,,RECOVERED/RESOLVED,4.0,Y,,,,,,,,
CDISCPILOT01,704,01-704-1009,Xanomeline Low Dose,54.0,83.0,>80,3.0,WHITE,1.0,M,Y,2013-08-27,2013-09-25,2013-09-17,,22.0,,,,,DIZZINESS,DIZZINESS,,DIZZINESS,,HLT_0619,,HLGT_0751,,NERVOUS SYSTEM DISORDERS,NERVOUS SYSTEM DISORDERS,,MILD,N,N,N,N,N,N,N,N,REMOTE,,NOT RECOVERED/NOT RESOLVED,5.0,Y,,Y,Y,,,,,
CDISCPILOT01,704,01-704-1009,Xanomeline Low Dose,54.0,83.0,>80,3.0,WHITE,1.0,M,Y,2013-08-27,2013-09-25,2013-09-22,,27.0,2013-09-23,28.0,2.0,DAY,NAUSEA,NAUSEA,,NAUSEA,,HLT_0742,,HLGT_0326,,GASTROINTESTINAL DISORDERS,GASTROINTESTINAL DISORDERS,,MILD,N,N,N,N,N,N,N,N,POSSIBLE,,RECOVERED/RESOLVED,6.0,Y,,Y,Y,,,,,
CDISCPILOT01,704,01-704-1010,Placebo,0.0,80.0,65-80,2.0,WHITE,1.0,M,Y,2014-02-21,2014-07-08,2014-02-27,,7.0,2014-03-06,14.0,8.0,DAY,CYSTITIS,BLADDER INFECTION,,CYSTITIS,,HLT_0739,,HLGT_0129,,INFECTIONS AND INFESTATIONS,INFECTIONS AND INFESTATIONS,,MILD,N,N,N,N,N,N,N,N,NONE,,RECOVERED/RESOLVED,1.0,Y,Y,Y,Y,,,,,
CDISCPILOT01,704,01-704-1010,Placebo,0.0,80.0,65-80,2.0,WHITE,1.0,M,Y,2014-02-21,2014-07-08,2014-07-05,,135.0,2014-07-06,136.0,2.0,DAY,VOMITING,VOMITING,,VOMITING,,HLT_0016,,HLGT_0350,,GASTROINTESTINAL DISORDERS,GASTROINTESTINAL DISORDERS,,MILD,N,N,N,N,N,N,N,N,NONE,,RECOVERED/RESOLVED,2.0,Y,,Y,Y,,,,,
CDISCPILOT01,704,01-704-1010,Placebo,0.0,80.0,65-80,2.0,WHITE,1.0,M,Y,2014-02-21,2014-07-08,2014-07-05,,135.0,2014-07-06,136.0,2.0,DAY,DIARRHOEA,DIARRHEA,,DIARRHOEA,,HLT_0148,,HLGT_0588,,GASTROINTESTINAL DISORDERS,GASTROINTESTINAL DISORDERS,,MILD,N,N,N,N,N,N,N,N,NONE,,RECOVERED/RESOLVED,3.0,Y,,,Y,,,,,
CDISCPILOT01,704,01-704-1010,Placebo,0.0,80.0,65-80,2.0,WHITE,1.0,M,Y,2014-02-21,2014-07-08,2014-07-06,,136.0,,,,,EXCORIATION,ABRASION NOS,,EXCORIATION,,HLT_0738,,HLGT_0511,,"INJURY, POISONING AND PROCEDURAL COMPLICATIONS","INJURY, POISONING AND PROCEDURAL COMPLICATIONS",,MILD,N,N,N,N,N,N,N,N,NONE,,NOT RECOVERED/NOT RESOLVED,4.0,Y,,Y,Y,,,,,
CDISCPILOT01,704,01-704-1010,Placebo,0.0,80.0,65-80,2.0,WHITE,1.0,M,Y,2014-02-21,2014-07-08,2014-07-06,,136.0,,,,,SKIN LACERATION,SKIN TEAR,,SKIN LACERATION,,HLT_0075,,HLGT_0118,,"INJURY, POISONING AND PROCEDURAL COMPLICATIONS","INJURY, POISONING AND PROCEDURAL COMPLICATIONS",,MILD,N,N,N,N,N,N,N,N,NONE,,NOT RECOVERED/NOT RESOLVED,5.0,Y,,,Y,,,,,
CDISCPILOT01,704,01-704-1010,Placebo,0.0,80.0,65-80,2.0,WHITE,1.0,M,Y,2014-02-21,2014-07-08,2014-07-06,,136.0,,,,,ARTHRALGIA,KNEE PAIN,,ARTHRALGIA,,HLT_0375,,HLGT_0610,,MUSCULOSKELETAL AND CONNECTIVE TISSUE DISORDERS,MUSCULOSKELETAL AND CONNECTIVE TISSUE DISORDERS,,MILD,N,N,N,N,N,N,N,N,NONE,,NOT RECOVERED/NOT RESOLVED,6.0,Y,,Y,Y,,,,,
CDISCPILOT01,704,01-704-1010,Placebo,0.0,80.0,65-80,2.0,WHITE,1.0,M,Y,2014-02-21,2014-07-08,2014-07-06,,136.0,,,,,CONTUSION,BRUISE OF HEAD,,CONTUSION,,HLT_0713,,HLGT_0381,,"INJURY, POISONING AND PROCEDURAL COMPLICATIONS","INJURY, POISONING AND PROCEDURAL COMPLICATIONS",,MILD,N,N,N,N,N,N,N,N,NONE,,NOT RECOVERED/NOT RESOLVED,7.0,Y,,,Y,,,,,
CDISCPILOT01,704,01-704-1017,Xanomeline High Dose,81.0,77.0,65-80,2.0,WHITE,1.0,M,Y,2013-10-06,2013-11-18,2013-10-19,,14.0,,,,,MYOCARDIAL INFARCTION,MYOCARDIAL INFARCTION,,MYOCARDIAL INFARCTION,,HLT_0649,,HLGT_0688,,CARDIAC DISORDERS,CARDIAC DISORDERS,,MILD,N,N,N,N,N,N,N,N,NONE,,NOT RECOVERED/NOT RESOLVED,1.0,Y,Y,Y,Y,,,,,
CDISCPILOT01,704,01-704-1017,Xanomeline High Dose,81.0,77.0,65-80,2.0,WHITE,1.0,M,Y,2013-10-06,2013-11-18,2013-10-19,,14.0,,,,,VENTRICULAR SEPTAL DEFECT,VENTRICULAR SEPTAL DEFECT,,VENTRICULAR SEPTAL DEFECT,,HLT_0589,,HLGT_0747,,"CONGENITAL, FAMILIAL AND GENETIC DISORDERS","CONGENITAL, FAMILIAL AND GENETIC DISORDERS",,MILD,N,N,N,N,N,N,N,N,NONE,,NOT RECOVERED/NOT RESOLVED,2.0,Y,,Y,Y,,,,,
CDISCPILOT01,704,01-704-1017,Xanomeline High Dose,81.0,77.0,65-80,2.0,WHITE,1.0,M,Y,2013-10-06,2013-11-18,2013-11-01,,27.0,2013-11-08,34.0,8.0,DAY,INFLUENZA,FLU,,INFLUENZA,,HLT_0125,,HLGT_0081,,INFECTIONS AND INFESTATIONS,INFECTIONS AND INFESTATIONS,,MILD,N,N,N,N,N,N,N,N,NONE,,RECOVERED/RESOLVED,3.0,Y,,Y,Y,,,,,
CDISCPILOT01,704,01-704-1017,Xanomeline High Dose,81.0,77.0,65-80,2.0,WHITE,1.0,M,Y,2013-10-06,2013-11-18,2013-11-01,,27.0,,,,,CARDIAC DISORDER,CARDIAC DISORDER,,CARDIAC DISORDER,,HLT_0507,,HLGT_0126,,CARDIAC DISORDERS,CARDIAC DISORDERS,,MILD,N,N,N,N,N,N,N,N,NONE,,NOT RECOVERED/NOT RESOLVED,4.0,Y,,,Y,,,,,
CDISCPILOT01,704,01-704-1017,Xanomeline High Dose,81.0,77.0,65-80,2.0,WHITE,1.0,M,Y,2013-10-06,2013-11-18,2013-11-05,,31.0,2013-11-22,48.0,18.0,DAY,RASH,RASH,,RASH,,HLT_0762,,HLGT_0198,,SKIN AND SUBCUTANEOUS TISSUE DISORDERS,SKIN AND SUBCUTANEOUS TISSUE DISORDERS,,MILD,N,N,N,N,N,N,N,N,PROBABLE,,NOT RECOVERED/NOT RESOLVED,5.0,Y,,Y,Y,,,,DERMATOLOGIC EVENTS,Y
CDISCPILOT01,704,01-704-1017,Xanomeline High Dose,81.0,77.0,65-80,2.0,WHITE,1.0,M,Y,2013-10-06,2013-11-18,2013-11-05,,31.0,2013-11-22,48.0,18.0,DAY,PRURITUS,ITCHING,,PRURITUS,,HLT_0778,,HLGT_0695,,SKIN AND SUBCUTANEOUS TISSUE DISORDERS,SKIN AND SUBCUTANEOUS TISSUE DISORDERS,,MILD,N,N,N,N,N,N,N,N,PROBABLE,,NOT RECOVERED/NOT RESOLVED,6.0,Y,,,Y,,,,DERMATOLOGIC EVENTS,
CDISCPILOT01,704,01-704-1017,Xanomeline High Dose,81.0,77.0,65-80,2.0,WHITE,1.0,M,Y,2013-10-06,2013-11-18,2013-11-05,,31.0,2013-11-22,48.0,18.0,DAY,RASH,RASH,,RASH,,HLT_0762,,HLGT_0198,,SKIN AND SUBCUTANEOUS TISSUE DISORDERS,SKIN AND SUBCUTANEOUS TISSUE DISORDERS,,MILD,N,N,N,N,N,N,N,N,PROBABLE,,RECOVERED/RESOLVED,7.0,Y,,,,,,,DERMATOLOGIC EVENTS,
CDISCPILOT01,704,01-704-1017,Xanomeline High Dose,81.0,77.0,65-80,2.0,WHITE,1.0,M,Y,2013-10-06,2013-11-18,2013-11-05,,31.0,2013-11-22,48.0,18.0,DAY,PRURITUS,ITCHING,,PRURITUS,,HLT_0778,,HLGT_0695,,SKIN AND SUBCUTANEOUS TISSUE DISORDERS,SKIN AND SUBCUTANEOUS TISSUE DISORDERS,,MILD,N,N,N,N,N,N,N,N,PROBABLE,,RECOVERED/RESOLVED,8.0,Y,,,,,,,DERMATOLOGIC EVENTS,
CDISCPILOT01,704,01-704-1025,Xanomeline Low Dose,54.0,81.0,>80,3.0,WHITE,1.0,F,Y,2013-09-27,2013-10-24,2013-09-28,,2.0,2013-09-30,4.0,3.0,DAY,VERTIGO,VERTIGO,,VERTIGO,,HLT_0255,,HLGT_0147,,EAR AND LABYRINTH DISORDERS,EAR AND LABYRINTH DISORDERS,,MODERATE,N,N,N,N,N,N,N,N,POSSIBLE,,RECOVERED/RESOLVED,1.0,Y,Y,Y,Y,,,,,
CDISCPILOT01,704,01-704-1025,Xanomeline Low Dose,54.0,81.0,>80,3.0,WHITE,1.0,F,Y,2013-09-27,2013-10-24,2013-09-28,,2.0,2013-09-30,4.0,3.0,DAY,PALPITATIONS,PALPITATIONS,,PALPITATIONS,,HLT_0493,,HLGT_0593,,CARDIAC DISORDERS,CARDIAC DISORDERS,,MODERATE,N,N,N,N,N,N,N,N,REMOTE,,RECOVERED/RESOLVED,2.0,Y,,Y,Y,,,,,
CDISCPILOT01,704,01-704-1025,Xanomeline Low Dose,54.0,81.0,>80,3.0,WHITE,1.0,F,Y,2013-09-27,2013-10-24,2013-10-11,,15.0,2013-10-25,29.0,15.0,DAY,ELECTROCARDIOGRAM ST SEGMENT DEPRESSION,ST SEGMENT DEPRESSED,,ELECTROCARDIOGRAM ST SEGMENT DEPRESSION,,HLT_0610,,HLGT_0220,,INVESTIGATIONS,INVESTIGATIONS,,MILD,N,N,N,N,N,N,N,N,POSSIBLE,,NOT RECOVERED/NOT RESOLVED,3.0,Y,,Y,Y,,,,,
CDISCPILOT01,704,01-704-1025,Xanomeline Low Dose,54.0,81.0,>80,3.0,WHITE,1.0,F,Y,2013-09-27,2013-10-24,2013-10-25,,29.0,2013-11-29,64.0,36.0,DAY,WOLFF-PARKINSON-WHITE SYNDROME,WOLFF-PARKINSON-WHITE SYNDROME,,WOLFF-PARKINSON-WHITE SYNDROME,,HLT_0612,,HLGT_0218,,CARDIAC DISORDERS,CARDIAC DISORDERS,,MILD,N,N,N,N,N,N,N,N,POSSIBLE,,NOT RECOVERED/NOT RESOLVED,4.0,Y,,,Y,,,,,
CDISCPILOT01,704,01-704-1025,Xanomeline Low Dose,54.0,81.0,>80,3.0,WHITE,1.0,F,Y,2013-09-27,2013-10-24,2013-10-11,,15.0,2013-10-25,29.0,15.0,DAY,ELECTROCARDIOGRAM ST SEGMENT DEPRESSION,ST SEGMENT DEPRESSED,,ELECTROCARDIOGRAM ST SEGMENT DEPRESSION,,HLT_0610,,HLGT_0220,,INVESTIGATIONS,INVESTIGATIONS,,MILD,N,N,N,N,N,N,N,N,POSSIBLE,,RECOVERED/RESOLVED,5.0,Y,,,,,,,,
CDISCPILOT01,704,01-704-1025,Xanomeline Low Dose,54.0,81.0,>80,3.0,WHITE,1.0,F,Y,2013-09-27,2013-10-24,2013-10-25,,29.0,2013-11-29,64.0,36.0,DAY,WOLFF-PARKINSON-WHITE SYNDROME,WOLFF-PARKINSON-WHITE SYNDROME,,WOLFF-PARKINSON-WHITE SYNDROME,,HLT_0612,,HLGT_0218,,CARDIAC DISORDERS,CARDIAC DISORDERS,,MILD,N,N,N,N,N,N,N,N,POSSIBLE,,RECOVERED/RESOLVED,6.0,Y,,,,,,,,
CDISCPILOT01,704,01-704-1065,Xanomeline High Dose,81.0,75.0,65-80,2.0,WHITE,1.0,M,Y,2013-10-24,2013-12-22,2013-10-26,,3.0,,,,,ABDOMINAL DISCOMFORT,ABDOMINAL DISCOMFORT,,ABDOMINAL DISCOMFORT,,HLT_0012,,HLGT_0332,,GASTROINTESTINAL DISORDERS,GASTROINTESTINAL DISORDERS,,MILD,N,N,N,N,N,N,N,N,REMOTE,,NOT RECOVERED/NOT RESOLVED,1.0,Y,Y,Y,Y,,,,,
CDISCPILOT01,704,01-704-1065,Xanomeline High Dose,81.0,75.0,65-80,2.0,WHITE,1.0,M,Y,2013-10-24,2013-12-22,2013-10-27,,4.0,,,,,RASH,RASH,,RASH,,HLT_0762,,HLGT_0198,,SKIN AND SUBCUTANEOUS TISSUE DISORDERS,SKIN AND SUBCUTANEOUS TISSUE DISORDERS,,MILD,N,N,N,N,N,N,N,N,PROBABLE,,NOT RECOVERED/NOT RESOLVED,2.0,Y,,Y,Y,,,,DERMATOLOGIC EVENTS,Y
CDISCPILOT01,704,01-704-1065,Xanomeline High Dose,81.0,75.0,65-80,2.0,WHITE,1.0,M,Y,2013-10-24,2013-12-22,2013-10-27,,4.0,,,,,APPLICATION SITE PRURITUS,APPLICATION SITE ITCHING,,APPLICATION SITE PRURITUS,,HLT_0317,,HLGT_0338,,GENERAL DISORDERS AND ADMINISTRATION SITE CONDITIONS,GENERAL DISORDERS AND ADMINISTRATION SITE CONDITIONS,,MODERATE,N,N,N,N,N,N,N,N,PROBABLE,,NOT RECOVERED/NOT RESOLVED,3.0,Y,,Y,Y,,,,DERMATOLOGIC EVENTS,
CDISCPILOT01,704,01-704-1065,Xanomeline High Dose,81.0,75.0,65-80,2.0,WHITE,1.0,M,Y,2013-10-24,2013-12-22,2013-11-09,,17.0,,,,,APPLICATION SITE IRRITATION,APPLICATION SITE BURNING,,APPLICATION SITE IRRITATION,,HLT_0061,,HLGT_0346,,GENERAL DISORDERS AND ADMINISTRATION SITE CONDITIONS,GENERAL DISORDERS AND ADMINISTRATION SITE CONDITIONS,,MILD,N,N,N,N,N,N,N,N,PROBABLE,,NOT RECOVERED/NOT RESOLVED,4.0,Y,,,Y,,,,DERMATOLOGIC EVENTS,
CDISCPILOT01,704,01-704-1065,Xanomeline High Dose,81.0,75.0,65-80,2.0,WHITE,1.0,M,Y,2013-10-24,2013-12-22,2013-11-09,,17.0,,,,,MALAISE,MALAISE,,MALAISE,,HLT_0456,,HLGT_0178,,GENERAL DISORDERS AND ADMINISTRATION SITE CONDITIONS,GENERAL DISORDERS AND ADMINISTRATION SITE CONDITIONS,,MILD,N,N,N,N,N,N,N,N,POSSIBLE,,NOT RECOVERED/NOT RESOLVED,5.0,Y,,,Y,,,,,
CDISCPILOT01,704,01-704-1065,Xanomeline High Dose,81.0,75.0,65-80,2.0,WHITE,1.0,M,Y,2013-10-24,2013-12-22,2013-11-09,,17.0,,,,,HYPERHIDROSIS,PERSPIRATION EXCESSIVE,,HYPERHIDROSIS,,HLT_0587,,HLGT_0005,,SKIN AND SUBCUTANEOUS TISSUE DISORDERS,SKIN AND SUBCUTANEOUS TISSUE DISORDERS,,MILD,N,N,N,N,N,N,N,N,POSSIBLE,,NOT RECOVERED/NOT RESOLVED,6.0,Y,,,Y,,,,,
CDISCPILOT01,704,01-704-1065,Xanomeline High Dose,81.0,75.0,65-80,2.0,WHITE,1.0,M,Y,2013-10-24,2013-12-22,2013-11-17,,25.0,2013-11-17,25.0,1.0,DAY,CHILLS,CHILLS,,CHILLS,,HLT_0586,,HLGT_0161,,GENERAL DISORDERS AND ADMINISTRATION SITE CONDITIONS,GENERAL DISORDERS AND ADMINISTRATION SITE CONDITIONS,,MILD,N,N,N,N,N,N,N,N,REMOTE,,RECOVERED/RESOLVED,7.0,Y,,,Y,,,,,
CDISCPILOT01,704,01-704-1065,Xanomeline High Dose,81.0,75.0,65-80,2.0,WHITE,1.0,M,Y,2013-10-24,2013-12-22,2013-11-17,,25.0,2013-11-17,25.0,1.0,DAY,DIZZINESS,DIZZINESS,,DIZZINESS,,HLT_0619,,HLGT_0751,,NERVOUS SYSTEM DISORDERS,NERVOUS SYSTEM DISORDERS,,MILD,N,N,N,N,N,N,N,N,REMOTE,,RECOVERED/RESOLVED,8.0,Y,,Y,Y,,,,,
CDISCPILOT01,704,01-704-1065,Xanomeline High Dose,81.0,75.0,65-80,2.0,WHITE,1.0,M,Y,2013-10-24,2013-12-22,2013-12-15,,53.0,2013-12-15,53.0,1.0,DAY,DIARRHOEA,DIARRHEA,,DIARRHOEA,,HLT_0148,,HLGT_0588,,GASTROINTESTINAL DISORDERS,GASTROINTESTINAL DISORDERS,,MILD,N,N,N,N,N,N,N,N,REMOTE,,RECOVERED/RESOLVED,9.0,Y,,,Y,,,,,
CDISCPILOT01,704,01-704-1065,Xanomeline High Dose,81.0,75.0,65-80,2.0,WHITE,1.0,M,Y,2013-10-24,2013-12-22,2013-12-24,,62.0,,,,,SINUS BRADYCARDIA,BRADYCARDIA SINUS,,SINUS BRADYCARDIA,,HLT_0644,,HLGT_0500,,CARDIAC DISORDERS,CARDIAC DISORDERS,,MILD,N,N,N,N,N,N,N,N,NONE,,NOT RECOVERED/NOT RESOLVED,10.0,Y,,Y,Y,,,,,
CDISCPILOT01,704,01-704-1074,Xanomeline High Dose,81.0,80.0,65-80,2.0,WHITE,1.0,F,Y,2014-01-22,2014-03-20,2014-01-22,,1.0,,,,,PRURITUS,ITCHING,,PRURITUS,,HLT_0778,,HLGT_0695,,SKIN AND SUBCUTANEOUS TISSUE DISORDERS,SKIN AND SUBCUTANEOUS TISSUE DISORDERS,,MILD,N,N,N,N,N,N,N,N,PROBABLE,,NOT RECOVERED/NOT RESOLVED,1.0,Y,Y,Y,Y,,,,DERMATOLOGIC EVENTS,Y
CDISCPILOT01,704,01-704-1074,Xanomeline High Dose,81.0,80.0,65-80,2.0,WHITE,1.0,F,Y,2014-01-22,2014-03-20,2014-02-09,,19.0,,,,,ERYTHEMA,SKIN RED,,ERYTHEMA,,HLT_0284,,HLGT_0192,,SKIN AND SUBCUTANEOUS TISSUE DISORDERS,SKIN AND SUBCUTANEOUS TISSUE DISORDERS,,MILD,N,N,N,N,N,N,N,N,PROBABLE,,NOT RECOVERED/NOT RESOLVED,2.0,Y,,,Y,,,,DERMATOLOGIC EVENTS,
CDISCPILOT01,704,01-704-1093,Xanomeline High Dose,81.0,79.0,65-80,2.0,WHITE,1.0,M,Y,2013-03-15,2013-06-17,2013-03-30,,16.0,2013-04-13,30.0,15.0,DAY,BLOOD GLUCOSE INCREASED,GLUCOSE INCREASED,,BLOOD GLUCOSE INCREASED,,HLT_0450,,HLGT_0188,,INVESTIGATIONS,INVESTIGATIONS,,MILD,N,N,N,N,N,N,N,N,NONE,,NOT RECOVERED/NOT RESOLVED,1.0,Y,Y,Y,Y,,,,,
CDISCPILOT01,704,01-704-1093,Xanomeline High Dose,81.0,79.0,65-80,2.0,WHITE,1.0,M,Y,2013-03-15,2013-06-17,2013-03-30,,16.0,2013-04-13,30.0,15.0,DAY,BLOOD GLUCOSE INCREASED,GLUCOSE INCREASED,,BLOOD GLUCOSE INCREASED,,HLT_0450,,HLGT_0188,,INVESTIGATIONS,INVESTIGATIONS,,MILD,N,N,N,N,N,N,N,N,NONE,,RECOVERED/RESOLVED,2.0,Y,,,,,,,,
CDISCPILOT01,704,01-704-1093,Xanomeline High Dose,81.0,79.0,65-80,2.0,WHITE,1.0,M,Y,2013-03-15,2013-06-17,2013-05-04,,51.0,,,,,RASH,RASH,,RASH,,HLT_0762,,HLGT_0198,,SKIN AND SUBCUTANEOUS TISSUE DISORDERS,SKIN AND SUBCUTANEOUS TISSUE DISORDERS,,MILD,N,N,N,N,N,N,N,N,PROBABLE,,NOT RECOVERED/NOT RESOLVED,3.0,Y,,Y,Y,,,,DERMATOLOGIC EVENTS,Y
CDISCPILOT01,704,01-704-1093,Xanomeline High Dose,81.0,79.0,65-80,2.0,WHITE,1.0,M,Y,2013-03-15,2013-06-17,2013-05-04,,51.0,,,,,PRURITUS,ITCHING,,PRURITUS,,HLT_0778,,HLGT_0695,,SKIN AND SUBCUTANEOUS TISSUE DISORDERS,SKIN AND SUBCUTANEOUS TISSUE DISORDERS,,MILD,N,N,N,N,N,N,N,N,PROBABLE,,NOT RECOVERED/NOT RESOLVED,4.0,Y,,,Y,,,,DERMATOLOGIC EVENTS,
CDISCPILOT01,704,01-704-1114,Xanomeline Low Dose,54.0,77.0,65-80,2.0,WHITE,1.0,M,Y,2013-01-23,2013-07-07,2013-02-21,,30.0,2013-02-23,32.0,3.0,DAY,ERYTHEMA,REDNESS,,ERYTHEMA,,HLT_0284,,HLGT_0192,,SKIN AND SUBCUTANEOUS TISSUE DISORDERS,SKIN AND SUBCUTANEOUS TISSUE DISORDERS,,MILD,N,N,N,N,N,N,N,N,PROBABLE,,RECOVERED/RESOLVED,1.0,Y,Y,Y,Y,,,,DERMATOLOGIC EVENTS,Y
CDISCPILOT01,704,01-704-1114,Xanomeline Low Dose,54.0,77.0,65-80,2.0,WHITE,1.0,M,Y,2013-01-23,2013-07-07,2013-02-23,,32.0,,,,,OEDEMA,EDEMA,,OEDEMA,,HLT_0656,,HLGT_0036,,GENERAL DISORDERS AND ADMINISTRATION SITE CONDITIONS,GENERAL DISORDERS AND ADMINISTRATION SITE CONDITIONS,,MILD,N,N,N,N,N,N,N,N,PROBABLE,,NOT RECOVERED/NOT RESOLVED,2.0,Y,,Y,Y,,,,,
CDISCPILOT01,704,01-704-1114,Xanomeline Low Dose,54.0,77.0,65-80,2.0,WHITE,1.0,M,Y,2013-01-23,2013-07-07,2013-03-23,,60.0,,,,,RASH,RASH,,RASH,,HLT_0762,,HLGT_0198,,SKIN AND SUBCUTANEOUS TISSUE DISORDERS,SKIN AND SUBCUTANEOUS TISSUE DISORDERS,,MILD,N,N,N,N,N,N,N,N,PROBABLE,,NOT RECOVERED/NOT RESOLVED,3.0,Y,,,Y,,,,DERMATOLOGIC EVENTS,
CDISCPILOT01,704,01-704-1114,Xanomeline Low Dose,54.0,77.0,65-80,2.0,WHITE,1.0,M,Y,2013-01-23,2013-07-07,2013-03-23,,60.0,,,,,PRURITUS,ITCHING,,PRURITUS,,HLT_0778,,HLGT_0695,,SKIN AND SUBCUTANEOUS TISSUE DISORDERS,SKIN AND SUBCUTANEOUS TISSUE DISORDERS,,MILD,N,N,N,N,N,N,N,N,PROBABLE,,NOT RECOVERED/NOT RESOLVED,4.0,Y,,,Y,,,,DERMATOLOGIC EVENTS,
CDISCPILOT01,704,01-704-1114,Xanomeline Low Dose,54.0,77.0,65-80,2.0,WHITE,1.0,M,Y,2013-01-23,2013-07-07,2013-06-07,,136.0,2013-06-13,142.0,7.0,DAY,INFLUENZA,FLU,,INFLUENZA,,HLT_0125,,HLGT_0081,,INFECTIONS AND INFESTATIONS,INFECTIONS AND INFESTATIONS,,MILD,N,N,N,N,N,N,N,N,NONE,,RECOVERED/RESOLVED,5.0,Y,,Y,Y,,,,,
CDISCPILOT01,704,01-704-1120,Xanomeline Low Dose,54.0,71.0,65-80,2.0,WHITE,1.0,F,Y,2013-12-02,2014-02-01,2013-12-23,,22.0,,,,,RASH,RASH,,RASH,,HLT_0762,,HLGT_0198,,SKIN AND SUBCUTANEOUS TISSUE DISORDERS,SKIN AND SUBCUTANEOUS TISSUE DISORDERS,,MILD,N,N,N,N,N,N,N,N,PROBABLE,,NOT RECOVERED/NOT RESOLVED,1.0,Y,Y,Y,Y,,,,DERMATOLOGIC EVENTS,Y
CDISCPILOT01,704,01-704-1120,Xanomeline Low Dose,54.0,71.0,65-80,2.0,WHITE,1.0,F,Y,2013-12-02,2014-02-01,2013-12-28,,27.0,2014-02-03,64.0,38.0,DAY,NASOPHARYNGITIS,COLD,,NASOPHARYNGITIS,,HLT_0036,,HLGT_0709,,INFECTIONS AND INFESTATIONS,INFECTIONS AND INFESTATIONS,,MILD,N,N,N,N,N,N,N,N,NONE,,NOT RECOVERED/NOT RESOLVED,2.0,Y,,Y,Y,,,,,
CDISCPILOT01,704,01-704-1120,Xanomeline Low Dose,54.0,71.0,65-80,2.0,WHITE,1.0,F,Y,2013-12-02,2014-02-01,2013-12-23,,22.0,,,,,RASH,RASH,,RASH,,HLT_0762,,HLGT_0198,,SKIN AND SUBCUTANEOUS TISSUE DISORDERS,SKIN AND SUBCUTANEOUS TISSUE DISORDERS,,MODERATE,N,N,N,N,N,N,N,N,PROBABLE,,NOT RECOVERED/NOT RESOLVED,3.0,Y,,,,,,,DERMATOLOGIC EVENTS,
CDISCPILOT01,704,01-704-1120,Xanomeline Low Dose,54.0,71.0,65-80,2.0,WHITE,1.0,F,Y,2013-12-02,2014-02-01,2014-01-27,,57.0,,,,,PRURITUS,ITCHING,,PRURITUS,,HLT_0778,,HLGT_0695,,SKIN AND SUBCUTANEOUS TISSUE DISORDERS,SKIN AND SUBCUTANEOUS TISSUE DISORDERS,,MILD,N,N,N,N,N,N,N,N,PROBABLE,,NOT RECOVERED/NOT RESOLVED,4.0,Y,,,Y,,,,DERMATOLOGIC EVENTS,
CDISCPILOT01,704,01-704-1120,Xanomeline Low Dose,54.0,71.0,65-80,2.0,WHITE,1.0,F,Y,2013-12-02,2014-02-01,2014-01-27,,57.0,,,,,PRURITUS,ITCHING,,PRURITUS,,HLT_0778,,HLGT_0695,,SKIN AND SUBCUTANEOUS TISSUE DISORDERS,SKIN AND SUBCUTANEOUS TISSUE DISORDERS,,MODERATE,N,N,N,N,N,N,N,N,PROBABLE,,NOT RECOVERED/NOT RESOLVED,5.0,Y,,,,,,,DERMATOLOGIC EVENTS,
CDISCPILOT01,704,01-704-1120,Xanomeline Low Dose,54.0,71.0,65-80,2.0,WHITE,1.0,F,Y,2013-12-02,2014-02-01,2013-12-28,,27.0,2014-02-03,64.0,38.0,DAY,NASOPHARYNGITIS,COLD,,NASOPHARYNGITIS,,HLT_0036,,HLGT_0709,,INFECTIONS AND INFESTATIONS,INFECTIONS AND INFESTATIONS,,MILD,N,N,N,N,N,N,N,N,NONE,,RECOVERED/RESOLVED,6.0,Y,,,,,,,,
CDISCPILOT01,704,01-704-1135,Xanomeline Low Dose,54.0,74.0,65-80,2.0,WHITE,1.0,F,Y,2013-10-31,2014-05-16,2013-12-08,,39.0,,,,,RASH,RASH,,RASH,,HLT_0762,,HLGT_0198,,SKIN AND SUBCUTANEOUS TISSUE DISORDERS,SKIN AND SUBCUTANEOUS TISSUE DISORDERS,,MILD,N,N,N,N,N,N,N,N,,,NOT RECOVERED/NOT RESOLVED,1.0,Y,Y,Y,Y,,,,DERMATOLOGIC EVENTS,Y
CDISCPILOT01,704,01-704-1135,Xanomeline Low Dose,54.0,74.0,65-80,2.0,WHITE,1.0,F,Y,2013-10-31,2014-05-16,2013-12-08,,39.0,,,,,RASH,RASH,,RASH,,HLT_0762,,HLGT_0198,,SKIN AND SUBCUTANEOUS TISSUE DISORDERS,SKIN AND SUBCUTANEOUS TISSUE DISORDERS,,SEVERE,N,N,N,N,N,N,N,N,,,NOT RECOVERED/NOT RESOLVED,2.0,Y,,,,,,,DERMATOLOGIC EVENTS,
CDISCPILOT01,704,01-704-1164,Placebo,0.0,67.0,65-80,2.0,WHITE,1.0,F,Y,2012-09-19,2013-04-04,2012-09-27,,9.0,2012-10-07,19.0,11.0,DAY,INFLUENZA,FLU,,INFLUENZA,,HLT_0125,,HLGT_0081,,INFECTIONS AND INFESTATIONS,INFECTIONS AND INFESTATIONS,,MILD,N,N,N,N,N,N,N,N,NONE,,NOT RECOVERED/NOT RESOLVED,1.0,Y,Y,Y,Y,,,,,
CDISCPILOT01,704,01-704-1164,Placebo,0.0,67.0,65-80,2.0,WHITE,1.0,F,Y,2012-09-19,2013-04-04,2012-09-27,,9.0,2012-10-07,19.0,11.0,DAY,INFLUENZA,FLU,,INFLUENZA,,HLT_0125,,HLGT_0081,,INFECTIONS AND INFESTATIONS,INFECTIONS AND INFESTATIONS,,MILD,N,N,N,N,N,N,N,N,NONE,,RECOVERED/RESOLVED,2.0,Y,,,,,,,,
CDISCPILOT01,704,01-704-1164,Placebo,0.0,67.0,65-80,2.0,WHITE,1.0,F,Y,2012-09-19,2013-04-04,2013-02-04,,139.0,2013-02-13,148.0,10.0,DAY,OEDEMA PERIPHERAL,SWELLING OF FEET,,OEDEMA PERIPHERAL,,HLT_0661,,HLGT_0137,,GENERAL DISORDERS AND ADMINISTRATION SITE CONDITIONS,GENERAL DISORDERS AND ADMINISTRATION SITE CONDITIONS,,MILD,N,N,N,N,N,N,N,N,NONE,,RECOVERED/RESOLVED,3.0,Y,,Y,Y,,,,,
CDISCPILOT01,704,01-704-1218,Xanomeline Low Dose,54.0,81.0,>80,3.0,WHITE,1.0,F,Y,2012-11-19,2013-05-27,2012-12-30,,42.0,,,,,BLOOD GLUCOSE INCREASED,GLUCOSE INCREASED,,BLOOD GLUCOSE INCREASED,,HLT_0450,,HLGT_0188,,INVESTIGATIONS,INVESTIGATIONS,,MILD,N,N,N,N,N,N,N,N,NONE,,NOT RECOVERED/NOT RESOLVED,1.0,Y,Y,Y,Y,,,,,
CDISCPILOT01,704,01-704-1241,Xanomeline High Dose,81.0,86.0,>80,3.0,WHITE,1.0,M,Y,2013-08-25,2013-10-09,2013-08-14,,-11.0,,,,,RASH,RASH,,RASH,,HLT_0762,,HLGT_0198,,SKIN AND SUBCUTANEOUS TISSUE DISORDERS,SKIN AND SUBCUTANEOUS TISSUE DISORDERS,,MODERATE,N,N,N,N,N,N,N,N,NONE,,NOT RECOVERED/NOT RESOLVED,1.0,,,,,,,,DERMATOLOGIC EVENTS,
CDISCPILOT01,704,01-704-1241,Xanomeline High Dose,81.0,86.0,>80,3.0,WHITE,1.0,M,Y,2013-08-25,2013-10-09,2013-09-28,,35.0,,,,,DYSPNOEA,RESPIRATION LABORED,,DYSPNOEA,,HLT_0296,,HLGT_0255,,"RESPIRATORY, THORACIC AND MEDIASTINAL DISORDERS","RESPIRATORY, THORACIC AND MEDIASTINAL DISORDERS",,MILD,N,N,N,N,N,N,N,N,NONE,,NOT RECOVERED/NOT RESOLVED,2.0,Y,Y,Y,Y,,,,,
CDISCPILOT01,704,01-704-1266,Xanomeline High Dose,81.0,82.0,>80,3.0,WHITE,1.0,M,Y,2013-10-13,2013-12-06,2013-10-06,,-7.0,,,,,SEASONAL ALLERGY,HAY FEVER,,SEASONAL ALLERGY,,HLT_0714,,HLGT_0782,,IMMUNE SYSTEM DISORDERS,IMMUNE SYSTEM DISORDERS,,MILD,N,N,N,N,N,N,N,N,NONE,,NOT RECOVERED/NOT RESOLVED,1.0,,,,,,,,,
CDISCPILOT01,704,01-704-1266,Xanomeline High Dose,81.0,82.0,>80,3.0,WHITE,1.0,M,Y,2013-10-13,2013-12-06,2013-10-17,,5.0,2013-12-23,72.0,68.0,DAY,ERYTHEMA,ERYTHEMA,,ERYTHEMA,,HLT_0284,,HLGT_0192,,SKIN AND SUBCUTANEOUS TISSUE DISORDERS,SKIN AND SUBCUTANEOUS TISSUE DISORDERS,,MILD,N,N,N,N,N,N,N,N,PROBABLE,,NOT RECOVERED/NOT RESOLVED,2.0,Y,Y,Y,Y,,,,DERMATOLOGIC EVENTS,Y
CDISCPILOT01,704,01-704-1266,Xanomeline High Dose,81.0,82.0,>80,3.0,WHITE,1.0,M,Y,2013-10-13,2013-12-06,2013-10-27,,15.0,2013-11-08,27.0,13.0,DAY,ATRIAL FLUTTER,ATRIAL FLUTTER,,ATRIAL FLUTTER,,HLT_0477,,HLGT_0627,,CARDIAC DISORDERS,CARDIAC DISORDERS,,MILD,N,N,N,N,N,N,N,N,NONE,,NOT RECOVERED/NOT RESOLVED,3.0,Y,,Y,Y,,,,,
CDISCPILOT01,704,01-704-1266,Xanomeline High Dose,81.0,82.0,>80,3.0,WHITE,1.0,M,Y,2013-10-13,2013-12-06,2013-11-08,,27.0,2013-12-06,55.0,29.0,DAY,ATRIAL FIBRILLATION,ATRIAL FIBRILLATION,,ATRIAL FIBRILLATION,,HLT_0365,,HLGT_0012,,CARDIAC DISORDERS,CARDIAC DISORDERS,,MILD,N,N,N,N,N,N,N,N,NONE,,NOT RECOVERED/NOT RESOLVED,4.0,Y,,,Y,,,,,
CDISCPILOT01,704,01-704-1266,Xanomeline High Dose,81.0,82.0,>80,3.0,WHITE,1.0,M,Y,2013-10-13,2013-12-06,2013-10-27,,15.0,2013-11-08,27.0,13.0,DAY,ATRIAL FLUTTER,ATRIAL FLUTTER,,ATRIAL FLUTTER,,HLT_0477,,HLGT_0627,,CARDIAC DISORDERS,CARDIAC DISORDERS,,MILD,N,N,N,N,N,N,N,N,NONE,,RECOVERED/RESOLVED,5.0,Y,,,,,,,,
CDISCPILOT01,704,01-704-1266,Xanomeline High Dose,81.0,82.0,>80,3.0,WHITE,1.0,M,Y,2013-10-13,2013-12-06,2013-11-09,,28.0,2013-12-04,53.0,26.0,DAY,HYPERHIDROSIS,PERSPIRATION EXCESSIVE,,HYPERHIDROSIS,,HLT_0587,,HLGT_0005,,SKIN AND SUBCUTANEOUS TISSUE DISORDERS,SKIN AND SUBCUTANEOUS TISSUE DISORDERS,,MILD,N,N,N,N,N,N,N,N,POSSIBLE,,NOT RECOVERED/NOT RESOLVED,6.0,Y,,,Y,,,,,
CDISCPILOT01,704,01-704-1266,Xanomeline High Dose,81.0,82.0,>80,3.0,WHITE,1.0,M,Y,2013-10-13,2013-12-06,2013-11-15,,34.0,2013-12-14,63.0,30.0,DAY,BLISTER,BLISTERING,,BLISTER,,HLT_0752,,HLGT_0267,,SKIN AND SUBCUTANEOUS TISSUE DISORDERS,SKIN AND SUBCUTANEOUS TISSUE DISORDERS,,MILD,N,N,N,N,N,N,N,N,PROBABLE,,NOT RECOVERED/NOT RESOLVED,7.0,Y,,,Y,,,,DERMATOLOGIC EVENTS,
CDISCPILOT01,704,01-704-1266,Xanomeline High Dose,81.0,82.0,>80,3.0,WHITE,1.0,M,Y,2013-10-13,2013-12-06,2013-11-15,,34.0,2013-12-23,72.0,39.0,DAY,PRURITUS,ITCHING,,PRURITUS,,HLT_0778,,HLGT_0695,,SKIN AND SUBCUTANEOUS TISSUE DISORDERS,SKIN AND SUBCUTANEOUS TISSUE DISORDERS,,MILD,N,N,N,N,N,N,N,N,PROBABLE,,NOT RECOVERED/NOT RESOLVED,8.0,Y,,,Y,,,,DERMATOLOGIC EVENTS,
CDISCPILOT01,704,01-704-1266,Xanomeline High Dose,81.0,82.0,>80,3.0,WHITE,1.0,M,Y,2013-10-13,2013-12-06,2013-10-17,,5.0,2013-12-23,72.0,68.0,DAY,ERYTHEMA,ERYTHEMA,,ERYTHEMA,,HLT_0284,,HLGT_0192,,SKIN AND SUBCUTANEOUS TISSUE DISORDERS,SKIN AND SUBCUTANEOUS TISSUE DISORDERS,,MODERATE,N,N,N,N,N,N,N,N,PROBABLE,,NOT RECOVERED/NOT RESOLVED,9.0,Y,,,,,,,DERMATOLOGIC EVENTS,
CDISCPILOT01,704,01-704-1266,Xanomeline High Dose,81.0,82.0,>80,3.0,WHITE,1.0,M,Y,2013-10-13,2013-12-06,2013-11-09,,28.0,2013-12-04,53.0,26.0,DAY,HYPERHIDROSIS,PERSPIRATION EXCESSIVE,,HYPERHIDROSIS,,HLT_0587,,HLGT_0005,,SKIN AND SUBCUTANEOUS TISSUE DISORDERS,SKIN AND SUBCUTANEOUS TISSUE DISORDERS,,MILD,N,N,N,N,N,N,N,N,POSSIBLE,,RECOVERED/RESOLVED,10.0,Y,,,,,,,,
CDISCPILOT01,704,01-704-1266,Xanomeline High Dose,81.0,82.0,>80,3.0,WHITE,1.0,M,Y,2013-10-13,2013-12-06,2013-12-06,,55.0,2013-12-23,72.0,18.0,DAY,ERYTHEMA,REDNESS,,ERYTHEMA,,HLT_0284,,HLGT_0192,,SKIN AND SUBCUTANEOUS TISSUE DISORDERS,SKIN AND SUBCUTANEOUS TISSUE DISORDERS,,MILD,N,N,N,N,N,N,N,N,PROBABLE,,NOT RECOVERED/NOT RESOLVED,11.0,Y,,,,,,,DERMATOLOGIC EVENTS,
CDISCPILOT01,704,01-704-1266,Xanomeline High Dose,81.0,82.0,>80,3.0,WHITE,1.0,M,Y,2013-10-13,2013-12-06,2013-10-17,,5.0,2013-12-23,72.0,68.0,DAY,ERYTHEMA,ERYTHEMA,,ERYTHEMA,,HLT_0284,,HLGT_0192,,SKIN AND SUBCUTANEOUS TISSUE DISORDERS,SKIN AND SUBCUTANEOUS TISSUE DISORDERS,,MODERATE,N,N,N,N,N,N,N,N,PROBABLE,,RECOVERED/RESOLVED,12.0,Y,,,,,,,DERMATOLOGIC EVENTS,
CDISCPILOT01,704,01-704-1266,Xanomeline High Dose,81.0,82.0,>80,3.0,WHITE,1.0,M,Y,2013-10-13,2013-12-06,2013-11-08,,27.0,2013-12-06,55.0,29.0,DAY,ATRIAL FIBRILLATION,ATRIAL FIBRILLATION,,ATRIAL FIBRILLATION,,HLT_0365,,HLGT_0012,,CARDIAC DISORDERS,CARDIAC DISORDERS,,MILD,N,N,N,N,N,N,N,N,NONE,,RECOVERED/RESOLVED,13.0,Y,,,,,,,,
CDISCPILOT01,704,01-704-1266,Xanomeline High Dose,81.0,82.0,>80,3.0,WHITE,1.0,M,Y,2013-10-13,2013-12-06,2013-11-15,,34.0,2013-12-14,63.0,30.0,DAY,BLISTER,BLISTERING,,BLISTER,,HLT_0752,,HLGT_0267,,SKIN AND SUBCUTANEOUS TISSUE DISORDERS,SKIN AND SUBCUTANEOUS TISSUE DISORDERS,,MILD,N,N,N,N,N,N,N,N,PROBABLE,,RECOVERED/RESOLVED,14.0,Y,,,,,,,DERMATOLOGIC EVENTS,
CDISCPILOT01,704,01-704-1266,Xanomeline High Dose,81.0,82.0,>80,3.0,WHITE,1.0,M,Y,2013-10-13,2013-12-06,2013-11-15,,34.0,2013-12-23,72.0,39.0,DAY,PRURITUS,ITCHING,,PRURITUS,,HLT_0778,,HLGT_0695,,SKIN AND SUBCUTANEOUS TISSUE DISORDERS,SKIN AND SUBCUTANEOUS TISSUE DISORDERS,,MILD,N,N,N,N,N,N,N,N,PROBABLE,,RECOVERED/RESOLVED,15.0,Y,,,,,,,DERMATOLOGIC EVENTS,
CDISCPILOT01,704,01-704-1266,Xanomeline High Dose,81.0,82.0,>80,3.0,WHITE,1.0,M,Y,2013-10-13,2013-12-06,2013-12-06,,55.0,2013-12-23,72.0,18.0,DAY,ERYTHEMA,REDNESS,,ERYTHEMA,,HLT_0284,,HLGT_0192,,SKIN AND SUBCUTANEOUS TISSUE DISORDERS,SKIN AND SUBCUTANEOUS TISSUE DISORDERS,,MILD,N,N,N,N,N,N,N,N,PROBABLE,,RECOVERED/RESOLVED,16.0,Y,,,,,,,DERMATOLOGIC EVENTS,
CDISCPILOT01,704,01-704-1323,Xanomeline Low Dose,54.0,68.0,65-80,2.0,WHITE,1.0,F,Y,2013-07-08,2013-08-05,2013-07-30,,23.0,2013-08-03,27.0,5.0,DAY,VIRAL INFECTION,VIRAL INFECTION,,VIRAL INFECTION,,HLT_0733,,HLGT_0408,,INFECTIONS AND INFESTATIONS,INFECTIONS AND INFESTATIONS,,MILD,N,N,N,N,N,N,N,N,NONE,,RECOVERED/RESOLVED,1.0,Y,Y,Y,Y,,,,,
CDISCPILOT01,704,01-704-1323,Xanomeline Low Dose,54.0,68.0,65-80,2.0,WHITE,1.0,F,Y,2013-07-08,2013-08-05,2013-08-04,,28.0,,,,,RASH,RASH,,RASH,,HLT_0762,,HLGT_0198,,SKIN AND SUBCUTANEOUS TISSUE DISORDERS,SKIN AND SUBCUTANEOUS TISSUE DISORDERS,,MILD,N,N,N,N,N,N,N,N,PROBABLE,,NOT RECOVERED/NOT RESOLVED,2.0,Y,,Y,Y,,,,DERMATOLOGIC EVENTS,Y
CDISCPILOT01,704,01-704-1323,Xanomeline Low Dose,54.0,68.0,65-80,2.0,WHITE,1.0,F,Y,2013-07-08,2013-08-05,2013-08-04,,28.0,,,,,PRURITUS,ITCHING,,PRURITUS,,HLT_0778,,HLGT_0695,,SKIN AND SUBCUTANEOUS TISSUE DISORDERS,SKIN AND SUBCUTANEOUS TISSUE DISORDERS,,MILD,N,N,N,N,N,N,N,N,PROBABLE,,NOT RECOVERED/NOT RESOLVED,3.0,Y,,,Y,,,,DERMATOLOGIC EVENTS,
CDISCPILOT01,704,01-704-1323,Xanomeline Low Dose,54.0,68.0,65-80,2.0,WHITE,1.0,F,Y,2013-07-08,2013-08-05,2013-08-04,,28.0,,,,,OEDEMA,EDEMA,,OEDEMA,,HLT_0656,,HLGT_0036,,GENERAL DISORDERS AND ADMINISTRATION SITE CONDITIONS,GENERAL DISORDERS AND ADMINISTRATION SITE CONDITIONS,,MILD,N,N,N,N,N,N,N,N,PROBABLE,,NOT RECOVERED/NOT RESOLVED,4.0,Y,,Y,Y,,,,,
CDISCPILOT01,704,01-704-1325,Xanomeline Low Dose,54.0,81.0,>80,3.0,WHITE,1.0,M,Y,2014-04-23,2014-07-04,2014-05-23,,31.0,,,,,RASH,RASH,,RASH,,HLT_0762,,HLGT_0198,,SKIN AND SUBCUTANEOUS TISSUE DISORDERS,SKIN AND SUBCUTANEOUS TISSUE DISORDERS,,MILD,N,N,N,N,N,N,N,N,PROBABLE,,NOT RECOVERED/NOT RESOLVED,1.0,Y,Y,Y,Y,,,,DERMATOLOGIC EVENTS,Y
CDISCPILOT01,704,01-704-1325,Xanomeline Low Dose,54.0,81.0,>80,3.0,WHITE,1.0,M,Y,2014-04-23,2014-07-04,2014-07-04,,73.0,,,,,PRURITUS,ITCHING,,PRURITUS,,HLT_0778,,HLGT_0695,,SKIN AND SUBCUTANEOUS TISSUE DISORDERS,SKIN AND SUBCUTANEOUS TISSUE DISORDERS,,MILD,N,N,N,N,N,N,N,N,PROBABLE,,NOT RECOVERED/NOT RESOLVED,2.0,Y,,,Y,,,,DERMATOLOGIC EVENTS,
CDISCPILOT01,704,01-704-1332,Xanomeline High Dose,81.0,80.0,65-80,2.0,WHITE,1.0,M,Y,2013-12-09,2014-02-14,2013-12-10,,2.0,2014-02-24,78.0,77.0,DAY,RASH,RASH,,RASH,,HLT_0762,,HLGT_0198,,SKIN AND SUBCUTANEOUS TISSUE DISORDERS,SKIN AND SUBCUTANEOUS TISSUE DISORDERS,,MILD,N,N,N,N,N,N,N,N,NONE,,NOT RECOVERED/NOT RESOLVED,1.0,Y,Y,Y,Y,,,,DERMATOLOGIC EVENTS,Y
CDISCPILOT01,704,01-704-1332,Xanomeline High Dose,81.0,80.0,65-80,2.0,WHITE,1.0,M,Y,2013-12-09,2014-02-14,2014-01-18,,41.0,2014-02-24,78.0,38.0,DAY,PRURITUS,ITCHING,,PRURITUS,,HLT_0778,,HLGT_0695,,SKIN AND SUBCUTANEOUS TISSUE DISORDERS,SKIN AND SUBCUTANEOUS TISSUE DISORDERS,,MILD,N,N,N,N,N,N,N,N,PROBABLE,,NOT RECOVERED/NOT RESOLVED,2.0,Y,,,Y,,,,DERMATOLOGIC EVENTS,
CDISCPILOT01,704,01-704-1332,Xanomeline High Dose,81.0,80.0,65-80,2.0,WHITE,1.0,M,Y,2013-12-09,2014-02-14,2013-12-10,,2.0,2014-02-24,78.0,77.0,DAY,RASH,RASH,,RASH,,HLT_0762,,HLGT_0198,,SKIN AND SUBCUTANEOUS TISSUE DISORDERS,SKIN AND SUBCUTANEOUS TISSUE DISORDERS,,MODERATE,N,N,N,N,N,N,N,N,NONE,,NOT RECOVERED/NOT RESOLVED,3.0,Y,,,,,,,DERMATOLOGIC EVENTS,
CDISCPILOT01,704,01-704-1332,Xanomeline High Dose,81.0,80.0,65-80,2.0,WHITE,1.0,M,Y,2013-12-09,2014-02-14,2014-02-03,,57.0,,,,,BURNING SENSATION,BURNING SENSATION,,BURNING SENSATION,,HLT_0775,,HLGT_0456,,NERVOUS SYSTEM DISORDERS,NERVOUS SYSTEM DISORDERS,,MILD,N,N,N,N,N,N,N,N,PROBABLE,,NOT RECOVERED/NOT RESOLVED,4.0,Y,,Y,Y,,,,,
CDISCPILOT01,704,01-704-1332,Xanomeline High Dose,81.0,80.0,65-80,2.0,WHITE,1.0,M,Y,2013-12-09,2014-02-14,2013-12-10,,2.0,2014-02-24,78.0,77.0,DAY,RASH,RASH,,RASH,,HLT_0762,,HLGT_0198,,SKIN AND SUBCUTANEOUS TISSUE DISORDERS,SKIN AND SUBCUTANEOUS TISSUE DISORDERS,,MODERATE,N,N,N,N,N,N,N,N,NONE,,RECOVERED/RESOLVED,5.0,Y,,,,,,,DERMATOLOGIC EVENTS,
CDISCPILOT01,704,01-704-1332,Xanomeline High Dose,81.0,80.0,65-80,2.0,WHITE,1.0,M,Y,2013-12-09,2014-02-14,2014-01-18,,41.0,2014-02-24,78.0,38.0,DAY,PRURITUS,ITCHING,,PRURITUS,,HLT_0778,,HLGT_0695,,SKIN AND SUBCUTANEOUS TISSUE DISORDERS,SKIN AND SUBCUTANEOUS TISSUE DISORDERS,,MILD,N,N,N,N,N,N,N,N,PROBABLE,,RECOVERED/RESOLVED,6.0,Y,,,,,,,DERMATOLOGIC EVENTS,
CDISCPILOT01,704,01-704-1351,Placebo,0.0,70.0,65-80,2.0,WHITE,1.0,M,Y,2013-10-12,2014-04-18,2013-10-27,,16.0,2014-04-04,175.0,160.0,DAY,POLLAKIURIA,URINARY FREQUENCY,,POLLAKIURIA,,HLT_0393,,HLGT_0560,,RENAL AND URINARY DISORDERS,RENAL AND URINARY DISORDERS,,MILD,N,N,N,N,N,N,N,N,NONE,,NOT RECOVERED/NOT RESOLVED,1.0,Y,Y,Y,Y,,,,,
CDISCPILOT01,704,01-704-1351,Placebo,0.0,70.0,65-80,2.0,WHITE,1.0,M,Y,2013-10-12,2014-04-18,2013-10-27,,16.0,2014-04-04,175.0,160.0,DAY,FLATULENCE,GAS,,FLATULENCE,,HLT_0356,,HLGT_0504,,GASTROINTESTINAL DISORDERS,GASTROINTESTINAL DISORDERS,,MILD,N,N,N,N,N,N,N,N,NONE,,NOT RECOVERED/NOT RESOLVED,2.0,Y,,Y,Y,,,,,
CDISCPILOT01,704,01-704-1351,Placebo,0.0,70.0,65-80,2.0,WHITE,1.0,M,Y,2013-10-12,2014-04-18,2013-10-27,,16.0,2014-04-04,175.0,160.0,DAY,POLLAKIURIA,URINARY FREQUENCY,,POLLAKIURIA,,HLT_0393,,HLGT_0560,,RENAL AND URINARY DISORDERS,RENAL AND URINARY DISORDERS,,MILD,N,N,N,N,N,N,N,N,NONE,,RECOVERED/RESOLVED,3.0,Y,,,,,,,,
CDISCPILOT01,704,01-704-1351,Placebo,0.0,70.0,65-80,2.0,WHITE,1.0,M,Y,2013-10-12,2014-04-18,2013-10-27,,16.0,2014-04-04,175.0,160.0,DAY,FLATULENCE,GAS,,FLATULENCE,,HLT_0356,,HLGT_0504,,GASTROINTESTINAL DISORDERS,GASTROINTESTINAL DISORDERS,,MILD,N,N,N,N,N,N,N,N,NONE,,RECOVERED/RESOLVED,4.0,Y,,,,,,,,
CDISCPILOT01,704,01-704-1388,Placebo,0.0,81.0,>80,3.0,WHITE,1.0,M,Y,2012-12-07,2013-06-11,2012-08-23,,-106.0,,,,,HEADACHE,HEADACHE,,HEADACHE,,HLT_0064,,HLGT_0344,,NERVOUS SYSTEM DISORDERS,NERVOUS SYSTEM DISORDERS,,MODERATE,N,N,N,N,N,N,N,N,NONE,,NOT RECOVERED/NOT RESOLVED,1.0,,,,,,,,,
CDISCPILOT01,704,01-704-1435,Placebo,0.0,74.0,65-80,2.0,WHITE,1.0,M,Y,2012-11-17,2013-01-09,2013-01-06,,51.0,,,,,PARKINSON'S DISEASE,DISEASE PARKINSON'S,,PARKINSON'S DISEASE,,HLT_0279,,HLGT_0313,,NERVOUS SYSTEM DISORDERS,NERVOUS SYSTEM DISORDERS,,MILD,N,N,N,N,N,N,N,N,NONE,,NOT RECOVERED/NOT RESOLVED,1.0,Y,Y,Y,Y,,,,,
CDISCPILOT01,704,01-704-1445,Placebo,0.0,75.0,65-80,2.0,WHITE,1.0,M,Y,2014-05-11,2014-11-01,2014-10-31,,174.0,2014-10-31,174.0,1.0,DAY,COMPLETED SUICIDE,SUICIDE,,COMPLETED SUICIDE,,HLT_0625,,HLGT_0013,,PSYCHIATRIC DISORDERS,PSYCHIATRIC DISORDERS,,SEVERE,N,N,N,N,Y,N,N,N,NONE,,FATAL,1.0,Y,Y,Y,Y,,,,,
CDISCPILOT01,705,01-705-1031,Xanomeline Low Dose,54.0,56.0,<65,1.0,WHITE,1.0,F,Y,2013-11-27,2014-05-11,2013-12-25,,29.0,,,,,RASH,RASH,,RASH,,HLT_0762,,HLGT_0198,,SKIN AND SUBCUTANEOUS TISSUE DISORDERS,SKIN AND SUBCUTANEOUS TISSUE DISORDERS,,MILD,N,N,N,N,N,N,N,N,POSSIBLE,,NOT RECOVERED/NOT RESOLVED,1.0,Y,Y,Y,Y,,,,DERMATOLOGIC EVENTS,Y
CDISCPILOT01,705,01-705-1059,Placebo,0.0,66.0,65-80,2.0,WHITE,1.0,F,Y,2013-08-05,2013-12-05,2013-11-02,,90.0,,,,,ERYTHEMA,ERYTHEMA,,ERYTHEMA,,HLT_0284,,HLGT_0192,,SKIN AND SUBCUTANEOUS TISSUE DISORDERS,SKIN AND SUBCUTANEOUS TISSUE DISORDERS,,MODERATE,N,N,N,N,N,N,N,N,PROBABLE,,NOT RECOVERED/NOT RESOLVED,1.0,Y,Y,Y,Y,,,,DERMATOLOGIC EVENTS,Y
CDISCPILOT01,705,01-705-1186,Placebo,0.0,84.0,>80,3.0,WHITE,1.0,F,Y,2014-01-08,2014-01-26,2014-01-26,,19.0,,,,,HYPERBILIRUBINAEMIA,HYPERBILIRUBINEMIA,,HYPERBILIRUBINAEMIA,,HLT_0478,,HLGT_0087,,HEPATOBILIARY DISORDERS,HEPATOBILIARY DISORDERS,,MODERATE,N,N,N,N,N,N,N,N,REMOTE,,NOT RECOVERED/NOT RESOLVED,1.0,Y,Y,Y,Y,,,,,
CDISCPILOT01,705,01-705-1199,Xanomeline Low Dose,54.0,87.0,>80,3.0,WHITE,1.0,M,Y,2013-09-16,2013-09-28,2013-09-17,,2.0,2013-09-29,14.0,13.0,DAY,DYSPEPSIA,PYROSIS,,DYSPEPSIA,,HLT_0244,,HLGT_0716,,GASTROINTESTINAL DISORDERS,GASTROINTESTINAL DISORDERS,,MODERATE,N,N,N,N,N,N,N,N,POSSIBLE,,NOT RECOVERED/NOT RESOLVED,1.0,Y,Y,Y,Y,,,,,
CDISCPILOT01,705,01-705-1199,Xanomeline Low Dose,54.0,87.0,>80,3.0,WHITE,1.0,M,Y,2013-09-16,2013-09-28,2013-09-17,,2.0,2013-09-29,14.0,13.0,DAY,DYSPEPSIA,PYROSIS,,DYSPEPSIA,,HLT_0244,,HLGT_0716,,GASTROINTESTINAL DISORDERS,GASTROINTESTINAL DISORDERS,,MODERATE,N,N,N,N,N,N,N,N,POSSIBLE,,RECOVERED/RESOLVED,2.0,Y,,,,,,,,
CDISCPILOT01,705,01-705-1280,Xanomeline High Dose,81.0,56.0,<65,1.0,WHITE,1.0,F,Y,2014-01-17,2014-07-25,2014-04-20,,94.0,,,,,PRURITUS,PRURITUS,,PRURITUS,,HLT_0778,,HLGT_0695,,SKIN AND SUBCUTANEOUS TISSUE DISORDERS,SKIN AND SUBCUTANEOUS TISSUE DISORDERS,,MILD,N,N,N,N,N,N,N,N,POSSIBLE,,NOT RECOVERED/NOT RESOLVED,1.0,Y,Y,Y,Y,,,,DERMATOLOGIC EVENTS,Y
CDISCPILOT01,705,01-705-1281,Xanomeline High Dose,81.0,73.0,65-80,2.0,BLACK OR AFRICAN AMERICAN,2.0,F,Y,2013-11-28,2014-02-27,2014-01-30,,64.0,,,,,PRURITUS,PRURITUS,,PRURITUS,,HLT_0778,,HLGT_0695,,SKIN AND SUBCUTANEOUS TISSUE DISORDERS,SKIN AND SUBCUTANEOUS TISSUE DISORDERS,,MILD,N,N,N,N,N,N,N,N,POSSIBLE,,NOT RECOVERED/NOT RESOLVED,1.0,Y,Y,Y,Y,,,,DERMATOLOGIC EVENTS,Y
CDISCPILOT01,705,01-705-1281,Xanomeline High Dose,81.0,73.0,65-80,2.0,BLACK OR AFRICAN AMERICAN,2.0,F,Y,2013-11-28,2014-02-27,2014-01-30,,64.0,,,,,EXCORIATION,ABRASIONS,,EXCORIATION,,HLT_0738,,HLGT_0511,,"INJURY, POISONING AND PROCEDURAL COMPLICATIONS","INJURY, POISONING AND PROCEDURAL COMPLICATIONS",,MODERATE,N,N,N,N,N,N,N,N,PROBABLE,,NOT RECOVERED/NOT RESOLVED,2.0,Y,,Y,Y,,,,,
CDISCPILOT01,705,01-705-1281,Xanomeline High Dose,81.0,73.0,65-80,2.0,BLACK OR AFRICAN AMERICAN,2.0,F,Y,2013-11-28,2014-02-27,2014-01-30,,64.0,,,,,PRURITUS,PRURITUS,,PRURITUS,,HLT_0778,,HLGT_0695,,SKIN AND SUBCUTANEOUS TISSUE DISORDERS,SKIN AND SUBCUTANEOUS TISSUE DISORDERS,,MODERATE,N,N,N,N,N,N,N,N,POSSIBLE,,NOT RECOVERED/NOT RESOLVED,3.0,Y,,,,,,,DERMATOLOGIC EVENTS,
CDISCPILOT01,705,01-705-1292,Xanomeline Low Dose,54.0,60.0,<65,1.0,BLACK OR AFRICAN AMERICAN,2.0,F,Y,2013-10-14,2014-05-13,2013-10-28,,15.0,,,,,PRURITUS,ITCHY,,PRURITUS,,HLT_0778,,HLGT_0695,,SKIN AND SUBCUTANEOUS TISSUE DISORDERS,SKIN AND SUBCUTANEOUS TISSUE DISORDERS,,MILD,N,N,N,N,N,N,N,N,PROBABLE,,NOT RECOVERED/NOT RESOLVED,1.0,Y,Y,Y,Y,,,,DERMATOLOGIC EVENTS,Y
CDISCPILOT01,705,01-705-1292,Xanomeline Low Dose,54.0,60.0,<65,1.0,BLACK OR AFRICAN AMERICAN,2.0,F,Y,2013-10-14,2014-05-13,2014-02-13,,123.0,,,,,ERYTHEMA,ERYTHEMA,,ERYTHEMA,,HLT_0284,,HLGT_0192,,SKIN AND SUBCUTANEOUS TISSUE DISORDERS,SKIN AND SUBCUTANEOUS TISSUE DISORDERS,,MODERATE,N,N,N,N,N,N,N,N,PROBABLE,,NOT RECOVERED/NOT RESOLVED,2.0,Y,,,Y,,,,DERMATOLOGIC EVENTS,
CDISCPILOT01,705,01-705-1303,Xanomeline High Dose,81.0,72.0,65-80,2.0,WHITE,1.0,M,Y,2013-12-16,2014-06-02,2014-02-05,,52.0,2014-03-03,78.0,27.0,DAY,PRURITUS,PRURITUS,,PRURITUS,,HLT_0778,,HLGT_0695,,SKIN AND SUBCUTANEOUS TISSUE DISORDERS,SKIN AND SUBCUTANEOUS TISSUE DISORDERS,,MILD,N,N,N,N,N,N,N,N,POSSIBLE,,NOT RECOVERED/NOT RESOLVED,1.0,Y,Y,Y,Y,,,,DERMATOLOGIC EVENTS,Y
CDISCPILOT01,705,01-705-1303,Xanomeline High Dose,81.0,72.0,65-80,2.0,WHITE,1.0,M,Y,2013-12-16,2014-06-02,2014-02-05,,52.0,2014-03-03,78.0,27.0,DAY,RASH,RASH,,RASH,,HLT_0762,,HLGT_0198,,SKIN AND SUBCUTANEOUS TISSUE DISORDERS,SKIN AND SUBCUTANEOUS TISSUE DISORDERS,,MILD,N,N,N,N,N,N,N,N,POSSIBLE,,NOT RECOVERED/NOT RESOLVED,2.0,Y,,,Y,,,,DERMATOLOGIC EVENTS,
CDISCPILOT01,705,01-705-1303,Xanomeline High Dose,81.0,72.0,65-80,2.0,WHITE,1.0,M,Y,2013-12-16,2014-06-02,2014-02-05,,52.0,2014-03-03,78.0,27.0,DAY,PRURITUS,PRURITUS,,PRURITUS,,HLT_0778,,HLGT_0695,,SKIN AND SUBCUTANEOUS TISSUE DISORDERS,SKIN AND SUBCUTANEOUS TISSUE DISORDERS,,MILD,N,N,N,N,N,N,N,N,POSSIBLE,,RECOVERED/RESOLVED,3.0,Y,,,,,,,DERMATOLOGIC EVENTS,
CDISCPILOT01,705,01-705-1303,Xanomeline High Dose,81.0,72.0,65-80,2.0,WHITE,1.0,M,Y,2013-12-16,2014-06-02,2014-02-05,,52.0,2014-03-03,78.0,27.0,DAY,RASH,RASH,,RASH,,HLT_0762,,HLGT_0198,,SKIN AND SUBCUTANEOUS TISSUE DISORDERS,SKIN AND SUBCUTANEOUS TISSUE DISORDERS,,MODERATE,N,N,N,N,N,N,N,N,POSSIBLE,,RECOVERED/RESOLVED,4.0,Y,,,,,,,DERMATOLOGIC EVENTS,
CDISCPILOT01,705,01-705-1310,Xanomeline High Dose,81.0,74.0,65-80,2.0,WHITE,1.0,F,Y,2013-11-02,2014-01-23,2013-11-14,,13.0,,,,,RASH PRURITIC,PRURITIC RASH,,RASH PRURITIC,,HLT_0127,,HLGT_0753,,SKIN AND SUBCUTANEOUS TISSUE DISORDERS,SKIN AND SUBCUTANEOUS TISSUE DISORDERS,,MODERATE,N,N,N,N,N,N,N,N,POSSIBLE,,NOT RECOVERED/NOT RESOLVED,1.0,Y,Y,Y,Y,,,,DERMATOLOGIC EVENTS,Y
CDISCPILOT01,705,01-705-1310,Xanomeline High Dose,81.0,74.0,65-80,2.0,WHITE,1.0,F,Y,2013-11-02,2014-01-23,2014-01-09,,69.0,,,,,WOUND HAEMORRHAGE,WOUND BLEEDING,,WOUND HAEMORRHAGE,,HLT_0154,,HLGT_0162,,VASCULAR DISORDERS,VASCULAR DISORDERS,,MODERATE,N,N,N,N,N,N,N,N,POSSIBLE,,NOT RECOVERED/NOT RESOLVED,2.0,Y,,Y,Y,,,,,
CDISCPILOT01,705,01-705-1349,Placebo,0.0,86.0,>80,3.0,WHITE,1.0,F,Y,2013-03-10,2013-09-08,2013-04-08,,30.0,2013-04-08,30.0,1.0,DAY,NAUSEA,NAUSEA,,NAUSEA,,HLT_0742,,HLGT_0326,,GASTROINTESTINAL DISORDERS,GASTROINTESTINAL DISORDERS,,MILD,N,N,N,N,N,N,N,N,REMOTE,,RECOVERED/RESOLVED,1.0,Y,Y,Y,Y,,,,,
CDISCPILOT01,705,01-705-1349,Placebo,0.0,86.0,>80,3.0,WHITE,1.0,F,Y,2013-03-10,2013-09-08,2013-04-11,,33.0,2013-04-11,33.0,1.0,DAY,VOMITING,VOMITING,,VOMITING,,HLT_0016,,HLGT_0350,,GASTROINTESTINAL DISORDERS,GASTROINTESTINAL DISORDERS,,MILD,N,N,N,N,N,N,N,N,REMOTE,,RECOVERED/RESOLVED,2.0,Y,,,Y,,,,,
CDISCPILOT01,705,01-705-1349,Placebo,0.0,86.0,>80,3.0,WHITE,1.0,F,Y,2013-03-10,2013-09-08,2013-08-25,,169.0,,,,,VENTRICULAR HYPERTROPHY,LEFT VENTRICULAR HYPERTROPHY,,VENTRICULAR HYPERTROPHY,,HLT_0104,,HLGT_0259,,CARDIAC DISORDERS,CARDIAC DISORDERS,,MILD,N,N,N,N,N,N,N,N,REMOTE,,NOT RECOVERED/NOT RESOLVED,3.0,Y,,Y,Y,,,,,
CDISCPILOT01,705,01-705-1349,Placebo,0.0,86.0,>80,3.0,WHITE,1.0,F,Y,2013-03-10,2013-09-08,2013-08-25,,169.0,,,,,ELECTROCARDIOGRAM ST SEGMENT DEPRESSION,ST SEGMENT DEPRESSED,,ELECTROCARDIOGRAM ST SEGMENT DEPRESSION,,HLT_0610,,HLGT_0220,,INVESTIGATIONS,INVESTIGATIONS,,MILD,N,N,N,N,N,N,N,N,REMOTE,,NOT RECOVERED/NOT RESOLVED,4.0,Y,,Y,Y,,,,,
CDISCPILOT01,705,01-705-1393,Xanomeline Low Dose,54.0,84.0,>80,3.0,WHITE,1.0,F,Y,2012-09-07,2013-02-01,2012-09-19,,13.0,2012-09-24,18.0,6.0,DAY,ABDOMINAL PAIN,ABDOMINAL CRAMPS,,ABDOMINAL PAIN,,HLT_0217,,HLGT_0419,,GASTROINTESTINAL DISORDERS,GASTROINTESTINAL DISORDERS,,MILD,N,N,N,N,N,N,N,N,REMOTE,,RECOVERED/RESOLVED,1.0,Y,Y,Y,Y,,,,,
CDISCPILOT01,705,01-705-1393,Xanomeline Low Dose,54.0,84.0,>80,3.0,WHITE,1.0,F,Y,2012-09-07,2013-02-01,2011-12-05,,-277.0,2013-02-20,167.0,444.0,DAY,PRURITUS,PRURITUS,,PRURITUS,,HLT_0778,,HLGT_0695,,SKIN AND SUBCUTANEOUS TISSUE DISORDERS,SKIN AND SUBCUTANEOUS TISSUE DISORDERS,,MILD,N,N,N,N,N,N,N,N,PROBABLE,,NOT RECOVERED/NOT RESOLVED,2.0,,,,,,,,DERMATOLOGIC EVENTS,
CDISCPILOT01,705,01-705-1393,Xanomeline Low Dose,54.0,84.0,>80,3.0,WHITE,1.0,F,Y,2012-09-07,2013-02-01,2013-01-21,,137.0,2013-01-24,140.0,4.0,DAY,COLON CANCER,COLON CANCER,,COLON CANCER,,HLT_0597,,HLGT_0339,,"NEOPLASMS BENIGN, MALIGNANT AND UNSPECIFIED (INCL CYSTS AND POLYPS)","NEOPLASMS BENIGN, MALIGNANT AND UNSPECIFIED (INCL CYSTS AND POLYPS)",,SEVERE,N,Y,N,N,N,Y,N,N,NONE,,RECOVERED/RESOLVED,3.0,Y,,Y,Y,,,,,
CDISCPILOT01,705,01-705-1393,Xanomeline Low Dose,54.0,84.0,>80,3.0,WHITE,1.0,F,Y,2012-09-07,2013-02-01,2011-12-05,,-277.0,2013-02-20,167.0,444.0,DAY,PRURITUS,PRURITUS,,PRURITUS,,HLT_0778,,HLGT_0695,,SKIN AND SUBCUTANEOUS TISSUE DISORDERS,SKIN AND SUBCUTANEOUS TISSUE DISORDERS,,MILD,N,N,N,N,N,N,N,N,PROBABLE,,RECOVERED/RESOLVED,4.0,,,,,,,,DERMATOLOGIC EVENTS,
CDISCPILOT01,705,01-705-1431,Xanomeline Low Dose,54.0,68.0,65-80,2.0,WHITE,1.0,F,Y,2013-06-23,2013-12-19,2013-06-22,,-1.0,,,,,RASH ERYTHEMATOUS,ERYTHEMATOUS RASH,,RASH ERYTHEMATOUS,,HLT_0336,,HLGT_0701,,SKIN AND SUBCUTANEOUS TISSUE DISORDERS,SKIN AND SUBCUTANEOUS TISSUE DISORDERS,,MILD,N,N,N,N,N,N,N,N,PROBABLE,,NOT RECOVERED/NOT RESOLVED,1.0,,,,,,,,DERMATOLOGIC EVENTS,
CDISCPILOT01,705,01-705-1431,Xanomeline Low Dose,54.0,68.0,65-80,2.0,WHITE,1.0,F,Y,2013-06-23,2013-12-19,2013-07-04,,12.0,2013-07-06,14.0,3.0,DAY,ANXIETY,FEELING ANXIOUS,,ANXIETY,,HLT_0559,,HLGT_0570,,PSYCHIATRIC DISORDERS,PSYCHIATRIC DISORDERS,,MILD,N,N,N,N,N,N,N,N,POSSIBLE,,RECOVERED/RESOLVED,2.0,Y,Y,Y,Y,,,,,
CDISCPILOT01,706,01-706-1041,Placebo,0.0,64.0,<65,1.0,BLACK OR AFRICAN AMERICAN,2.0,F,Y,2013-12-31,2014-07-28,2012-05-01,D,-609.0,,,,,ANXIETY,ANXIETY ATTACK,,ANXIETY,,HLT_0559,,HLGT_0570,,PSYCHIATRIC DISORDERS,PSYCHIATRIC DISORDERS,,MODERATE,N,N,N,N,N,N,N,N,REMOTE,,NOT RECOVERED/NOT RESOLVED,1.0,,,,,,,,,
CDISCPILOT01,706,01-706-1041,Placebo,0.0,64.0,<65,1.0,BLACK OR AFRICAN AMERICAN,2.0,F,Y,2013-12-31,2014-07-28,2014-01-07,,8.0,2014-01-08,9.0,2.0,DAY,DIARRHOEA,DIARRHEA,,DIARRHOEA,,HLT_0148,,HLGT_0588,,GASTROINTESTINAL DISORDERS,GASTROINTESTINAL DISORDERS,,MILD,N,N,N,N,N,N,N,N,REMOTE,,RECOVERED/RESOLVED,2.0,Y,Y,Y,Y,,,,,
CDISCPILOT01,706,01-706-1041,Placebo,0.0,64.0,<65,1.0,BLACK OR AFRICAN AMERICAN,2.0,F,Y,2013-12-31,2014-07-28,2014-01-14,,15.0,2014-01-28,29.0,15.0,DAY,EXCORIATION,ABRASIONS,,EXCORIATION,,HLT_0738,,HLGT_0511,,"INJURY, POISONING AND PROCEDURAL COMPLICATIONS","INJURY, POISONING AND PROCEDURAL COMPLICATIONS",,MILD,N,N,N,N,N,N,N,N,NONE,,NOT RECOVERED/NOT RESOLVED,3.0,Y,,Y,Y,,,,,
CDISCPILOT01,706,01-706-1041,Placebo,0.0,64.0,<65,1.0,BLACK OR AFRICAN AMERICAN,2.0,F,Y,2013-12-31,2014-07-28,2014-01-15,,16.0,2014-07-29,211.0,196.0,DAY,IRRITABILITY,IRRITABILITY,,IRRITABILITY,,HLT_0627,,HLGT_0461,,PSYCHIATRIC DISORDERS,PSYCHIATRIC DISORDERS,,MODERATE,N,N,N,N,N,N,N,N,POSSIBLE,,NOT RECOVERED/NOT RESOLVED,4.0,Y,,Y,Y,,,,,
CDISCPILOT01,706,01-706-1041,Placebo,0.0,64.0,<65,1.0,BLACK OR AFRICAN AMERICAN,2.0,F,Y,2013-12-31,2014-07-28,2014-01-14,,15.0,2014-01-28,29.0,15.0,DAY,EXCORIATION,ABRASIONS,,EXCORIATION,,HLT_0738,,HLGT_0511,,"INJURY, POISONING AND PROCEDURAL COMPLICATIONS","INJURY, POISONING AND PROCEDURAL COMPLICATIONS",,MILD,N,N,N,N,N,N,N,N,NONE,,RECOVERED/RESOLVED,5.0,Y,,,,,,,,
CDISCPILOT01,706,01-706-1041,Placebo,0.0,64.0,<65,1.0,BLACK OR AFRICAN AMERICAN,2.0,F,Y,2013-12-31,2014-07-28,2014-03-04,,64.0,2014-07-29,211.0,148.0,DAY,PRURITUS,ITCHING,,PRURITUS,,HLT_0778,,HLGT_0695,,SKIN AND SUBCUTANEOUS TISSUE DISORDERS,SKIN AND SUBCUTANEOUS TISSUE DISORDERS,,MILD,N,N,N,N,N,N,N,N,POSSIBLE,,NOT RECOVERED/NOT RESOLVED,6.0,Y,,Y,Y,,,,DERMATOLOGIC EVENTS,Y
CDISCPILOT01,706,01-706-1041,Placebo,0.0,64.0,<65,1.0,BLACK OR AFRICAN AMERICAN,2.0,F,Y,2013-12-31,2014-07-28,2012-05-01,D,-609.0,,,,,ANXIETY,ANXIETY ATTACK,,ANXIETY,,HLT_0559,,HLGT_0570,,PSYCHIATRIC DISORDERS,PSYCHIATRIC DISORDERS,,MILD,N,N,N,N,N,N,N,N,REMOTE,,NOT RECOVERED/NOT RESOLVED,7.0,,,,,,,,,
CDISCPILOT01,706,01-706-1041,Placebo,0.0,64.0,<65,1.0,BLACK OR AFRICAN AMERICAN,2.0,F,Y,2013-12-31,2014-07-28,2014-01-15,,16.0,2014-07-29,211.0,196.0,DAY,IRRITABILITY,IRRITABILITY,,IRRITABILITY,,HLT_0627,,HLGT_0461,,PSYCHIATRIC DISORDERS,PSYCHIATRIC DISORDERS,,MODERATE,N,N,N,N,N,N,N,N,POSSIBLE,,RECOVERED/RESOLVED,8.0,Y,,,,,,,,
CDISCPILOT01,706,01-706-1041,Placebo,0.0,64.0,<65,1.0,BLACK OR AFRICAN AMERICAN,2.0,F,Y,2013-12-31,2014-07-28,2014-03-04,,64.0,2014-07-29,211.0,148.0,DAY,PRURITUS,ITCHING,,PRURITUS,,HLT_0778,,HLGT_0695,,SKIN AND SUBCUTANEOUS TISSUE DISORDERS,SKIN AND SUBCUTANEOUS TISSUE DISORDERS,,MILD,N,N,N,N,N,N,N,N,POSSIBLE,,RECOVERED/RESOLVED,9.0,Y,,,,,,,DERMATOLOGIC EVENTS,
CDISCPILOT01,706,01-706-1049,Xanomeline High Dose,81.0,60.0,<65,1.0,WHITE,1.0,F,Y,2013-05-14,2013-06-18,2013-06-03,,21.0,2013-06-03,21.0,1.0,DAY,SYNCOPE,FAINTING,,SYNCOPE,,HLT_0440,,HLGT_0310,,NERVOUS SYSTEM DISORDERS,NERVOUS SYSTEM DISORDERS,,MODERATE,N,N,N,N,N,N,N,N,POSSIBLE,,RECOVERED/RESOLVED,1.0,Y,Y,Y,Y,,,,,
CDISCPILOT01,706,01-706-1049,Xanomeline High Dose,81.0,60.0,<65,1.0,WHITE,1.0,F,Y,2013-05-14,2013-06-18,2013-06-18,,36.0,2013-06-18,36.0,1.0,DAY,SYNCOPE,SYNCOPAL ATTACK,,SYNCOPE,,HLT_0440,,HLGT_0310,,NERVOUS SYSTEM DISORDERS,NERVOUS SYSTEM DISORDERS,,SEVERE,N,N,N,N,N,Y,N,N,PROBABLE,,RECOVERED/RESOLVED,2.0,Y,,,,,,,,
CDISCPILOT01,706,01-706-1384,Xanomeline Low Dose,54.0,74.0,65-80,2.0,WHITE,1.0,F,Y,2012-09-15,2012-09-24,2012-09-15,,1.0,2012-09-29,15.0,15.0,DAY,ERYTHEMA,ERYTHEMA,,ERYTHEMA,,HLT_0284,,HLGT_0192,,SKIN AND SUBCUTANEOUS TISSUE DISORDERS,SKIN AND SUBCUTANEOUS TISSUE DISORDERS,,MODERATE,N,N,N,N,N,N,N,N,NONE,,NOT RECOVERED/NOT RESOLVED,1.0,Y,Y,Y,Y,,,,DERMATOLOGIC EVENTS,Y
CDISCPILOT01,706,01-706-1384,Xanomeline Low Dose,54.0,74.0,65-80,2.0,WHITE,1.0,F,Y,2012-09-15,2012-09-24,2012-09-15,,1.0,2012-09-29,15.0,15.0,DAY,PRURITUS,PRURITIS,,PRURITUS,,HLT_0778,,HLGT_0695,,SKIN AND SUBCUTANEOUS TISSUE DISORDERS,SKIN AND SUBCUTANEOUS TISSUE DISORDERS,,MODERATE,N,N,N,N,N,N,N,N,NONE,,NOT RECOVERED/NOT RESOLVED,2.0,Y,,,Y,,,,DERMATOLOGIC EVENTS,
CDISCPILOT01,706,01-706-1384,Xanomeline Low Dose,54.0,74.0,65-80,2.0,WHITE,1.0,F,Y,2012-09-15,2012-09-24,2012-09-15,,1.0,2012-09-29,15.0,15.0,DAY,EXCORIATION,ABRASIONS,,EXCORIATION,,HLT_0738,,HLGT_0511,,"INJURY, POISONING AND PROCEDURAL COMPLICATIONS","INJURY, POISONING AND PROCEDURAL COMPLICATIONS",,MODERATE,N,N,N,N,N,N,N,N,NONE,,NOT RECOVERED/NOT RESOLVED,3.0,Y,,Y,Y,,,,,
CDISCPILOT01,706,01-706-1384,Xanomeline Low Dose,54.0,74.0,65-80,2.0,WHITE,1.0,F,Y,2012-09-15,2012-09-24,2012-09-23,,9.0,2012-09-29,15.0,7.0,DAY,ERYTHEMA,ERYTHEMA,,ERYTHEMA,,HLT_0284,,HLGT_0192,,SKIN AND SUBCUTANEOUS TISSUE DISORDERS,SKIN AND SUBCUTANEOUS TISSUE DISORDERS,,MODERATE,N,N,N,N,N,N,N,N,PROBABLE,,NOT RECOVERED/NOT RESOLVED,4.0,Y,,,,,,,DERMATOLOGIC EVENTS,
CDISCPILOT01,706,01-706-1384,Xanomeline Low Dose,54.0,74.0,65-80,2.0,WHITE,1.0,F,Y,2012-09-15,2012-09-24,2012-09-23,,9.0,2012-09-29,15.0,7.0,DAY,PRURITUS,PRURITIS,,PRURITUS,,HLT_0778,,HLGT_0695,,SKIN AND SUBCUTANEOUS TISSUE DISORDERS,SKIN AND SUBCUTANEOUS TISSUE DISORDERS,,MODERATE,N,N,N,N,N,N,N,N,PROBABLE,,NOT RECOVERED/NOT RESOLVED,5.0,Y,,,,,,,DERMATOLOGIC EVENTS,
CDISCPILOT01,706,01-706-1384,Xanomeline Low Dose,54.0,74.0,65-80,2.0,WHITE,1.0,F,Y,2012-09-15,2012-09-24,2012-09-15,,1.0,2012-09-29,15.0,15.0,DAY,ERYTHEMA,ERYTHEMA,,ERYTHEMA,,HLT_0284,,HLGT_0192,,SKIN AND SUBCUTANEOUS TISSUE DISORDERS,SKIN AND SUBCUTANEOUS TISSUE DISORDERS,,MODERATE,N,N,N,N,N,N,N,N,NONE,,RECOVERED/RESOLVED,6.0,Y,,,,,,,DERMATOLOGIC EVENTS,
CDISCPILOT01,706,01-706-1384,Xanomeline Low Dose,54.0,74.0,65-80,2.0,WHITE,1.0,F,Y,2012-09-15,2012-09-24,2012-09-15,,1.0,2012-09-29,15.0,15.0,DAY,PRURITUS,PRURITIS,,PRURITUS,,HLT_0778,,HLGT_0695,,SKIN AND SUBCUTANEOUS TISSUE DISORDERS,SKIN AND SUBCUTANEOUS TISSUE DISORDERS,,MODERATE,N,N,N,N,N,N,N,N,NONE,,RECOVERED/RESOLVED,7.0,Y,,,,,,,DERMATOLOGIC EVENTS,
CDISCPILOT01,706,01-706-1384,Xanomeline Low Dose,54.0,74.0,65-80,2.0,WHITE,1.0,F,Y,2012-09-15,2012-09-24,2012-09-15,,1.0,2012-09-29,15.0,15.0,DAY,EXCORIATION,ABRASIONS,,EXCORIATION,,HLT_0738,,HLGT_0511,,"INJURY, POISONING AND PROCEDURAL COMPLICATIONS","INJURY, POISONING AND PROCEDURAL COMPLICATIONS",,MODERATE,N,N,N,N,N,N,N,N,NONE,,RECOVERED/RESOLVED,8.0,Y,,,,,,,,
CDISCPILOT01,706,01-706-1384,Xanomeline Low Dose,54.0,74.0,65-80,2.0,WHITE,1.0,F,Y,2012-09-15,2012-09-24,2012-09-23,,9.0,2012-09-29,15.0,7.0,DAY,ERYTHEMA,ERYTHEMA,,ERYTHEMA,,HLT_0284,,HLGT_0192,,SKIN AND SUBCUTANEOUS TISSUE DISORDERS,SKIN AND SUBCUTANEOUS TISSUE DISORDERS,,MODERATE,N,N,N,N,N,N,N,N,PROBABLE,,RECOVERED/RESOLVED,9.0,Y,,,,,,,DERMATOLOGIC EVENTS,
CDISCPILOT01,706,01-706-1384,Xanomeline Low Dose,54.0,74.0,65-80,2.0,WHITE,1.0,F,Y,2012-09-15,2012-09-24,2012-09-23,,9.0,2012-09-29,15.0,7.0,DAY,PRURITUS,PRURITIS,,PRURITUS,,HLT_0778,,HLGT_0695,,SKIN AND SUBCUTANEOUS TISSUE DISORDERS,SKIN AND SUBCUTANEOUS TISSUE DISORDERS,,MODERATE,N,N,N,N,N,N,N,N,PROBABLE,,RECOVERED/RESOLVED,10.0,Y,,,,,,,DERMATOLOGIC EVENTS,
CDISCPILOT01,707,01-707-1206,Placebo,0.0,65.0,65-80,2.0,WHITE,1.0,M,Y,2013-10-28,2014-04-26,2013-11-25,,29.0,2013-12-23,57.0,29.0,DAY,SINUS ARRHYTHMIA,SINUS ARRHYTHMIA,,SINUS ARRHYTHMIA,,HLT_0094,,HLGT_0630,,CARDIAC DISORDERS,CARDIAC DISORDERS,,MILD,N,N,N,N,N,N,N,N,POSSIBLE,,NOT RECOVERED/NOT RESOLVED,1.0,Y,Y,Y,Y,,,,,
CDISCPILOT01,707,01-707-1206,Placebo,0.0,65.0,65-80,2.0,WHITE,1.0,M,Y,2013-10-28,2014-04-26,2013-11-26,,30.0,2013-12-09,43.0,14.0,DAY,BLOOD CREATINE PHOSPHOKINASE INCREASED,CPK INCREASE,,BLOOD CREATINE PHOSPHOKINASE INCREASED,,HLT_0404,,HLGT_0008,,INVESTIGATIONS,INVESTIGATIONS,,MODERATE,N,N,N,N,N,N,N,N,POSSIBLE,,NOT RECOVERED/NOT RESOLVED,2.0,Y,,Y,Y,,,,,
CDISCPILOT01,707,01-707-1206,Placebo,0.0,65.0,65-80,2.0,WHITE,1.0,M,Y,2013-10-28,2014-04-26,2013-12-03,,37.0,2013-12-10,44.0,8.0,DAY,POSTNASAL DRIP,POSTNASAL DRIP,,POSTNASAL DRIP,,HLT_0172,,HLGT_0032,,"RESPIRATORY, THORACIC AND MEDIASTINAL DISORDERS","RESPIRATORY, THORACIC AND MEDIASTINAL DISORDERS",,MILD,N,N,N,N,N,N,N,N,NONE,,NOT RECOVERED/NOT RESOLVED,3.0,Y,,Y,Y,,,,,
CDISCPILOT01,707,01-707-1206,Placebo,0.0,65.0,65-80,2.0,WHITE,1.0,M,Y,2013-10-28,2014-04-26,2013-11-26,,30.0,2013-12-09,43.0,14.0,DAY,BLOOD CREATINE PHOSPHOKINASE INCREASED,CPK INCREASE,,BLOOD CREATINE PHOSPHOKINASE INCREASED,,HLT_0404,,HLGT_0008,,INVESTIGATIONS,INVESTIGATIONS,,MODERATE,N,N,N,N,N,N,N,N,POSSIBLE,,RECOVERED/RESOLVED,4.0,Y,,,,,,,,
CDISCPILOT01,707,01-707-1206,Placebo,0.0,65.0,65-80,2.0,WHITE,1.0,M,Y,2013-10-28,2014-04-26,2013-12-03,,37.0,2013-12-10,44.0,8.0,DAY,POSTNASAL DRIP,POSTNASAL DRIP,,POSTNASAL DRIP,,HLT_0172,,HLGT_0032,,"RESPIRATORY, THORACIC AND MEDIASTINAL DISORDERS","RESPIRATORY, THORACIC AND MEDIASTINAL DISORDERS",,MILD,N,N,N,N,N,N,N,N,NONE,,RECOVERED/RESOLVED,5.0,Y,,,,,,,,
CDISCPILOT01,707,01-707-1206,Placebo,0.0,65.0,65-80,2.0,WHITE,1.0,M,Y,2013-10-28,2014-04-26,2013-11-25,,29.0,2013-12-23,57.0,29.0,DAY,SINUS ARRHYTHMIA,SINUS ARRHYTHMIA,,SINUS ARRHYTHMIA,,HLT_0094,,HLGT_0630,,CARDIAC DISORDERS,CARDIAC DISORDERS,,MILD,N,N,N,N,N,N,N,N,POSSIBLE,,RECOVERED/RESOLVED,6.0,Y,,,,,,,,
CDISCPILOT01,707,01-707-1206,Placebo,0.0,65.0,65-80,2.0,WHITE,1.0,M,Y,2013-10-28,2014-04-26,2014-02-08,,104.0,2014-02-22,118.0,15.0,DAY,CONJUNCTIVITIS,CONJUNCTIVITIS,,CONJUNCTIVITIS,,HLT_0584,,HLGT_0335,,EYE DISORDERS,EYE DISORDERS,,MODERATE,N,N,N,N,N,N,N,N,REMOTE,,NOT RECOVERED/NOT RESOLVED,7.0,Y,,Y,Y,,,,,
CDISCPILOT01,707,01-707-1206,Placebo,0.0,65.0,65-80,2.0,WHITE,1.0,M,Y,2013-10-28,2014-04-26,2014-02-08,,104.0,2014-02-22,118.0,15.0,DAY,CONJUNCTIVITIS,CONJUNCTIVITIS,,CONJUNCTIVITIS,,HLT_0584,,HLGT_0335,,EYE DISORDERS,EYE DISORDERS,,MODERATE,N,N,N,N,N,N,N,N,REMOTE,,RECOVERED/RESOLVED,8.0,Y,,,,,,,,
CDISCPILOT01,708,01-708-1019,Xanomeline Low Dose,54.0,68.0,65-80,2.0,WHITE,1.0,M,Y,2013-12-20,2014-01-01,2013-12-31,,12.0,2013-12-31,12.0,1.0,DAY,HEADACHE,FRONTAL HEADACHE,,HEADACHE,,HLT_0064,,HLGT_0344,,NERVOUS SYSTEM DISORDERS,NERVOUS SYSTEM DISORDERS,,SEVERE,N,N,N,N,N,N,N,N,POSSIBLE,,RECOVERED/RESOLVED,1.0,Y,Y,Y,Y,,,,,
CDISCPILOT01,708,01-708-1019,Xanomeline Low Dose,54.0,68.0,65-80,2.0,WHITE,1.0,M,Y,2013-12-20,2014-01-01,2014-01-01,,13.0,2014-01-01,13.0,1.0,DAY,STUPOR,STUPOR,,STUPOR,,HLT_0595,,HLGT_0513,,NERVOUS SYSTEM DISORDERS,NERVOUS SYSTEM DISORDERS,,SEVERE,N,N,N,N,N,N,N,N,POSSIBLE,,RECOVERED/RESOLVED,2.0,Y,,,Y,,,,,
CDISCPILOT01,708,01-708-1019,Xanomeline Low Dose,54.0,68.0,65-80,2.0,WHITE,1.0,M,Y,2013-12-20,2014-01-01,2014-01-01,,13.0,2014-01-01,13.0,1.0,DAY,TRANSIENT ISCHAEMIC ATTACK,TRANSIENT ISCHEMIC ATTACKS,,TRANSIENT ISCHAEMIC ATTACK,,HLT_0041,,HLGT_0433,,NERVOUS SYSTEM DISORDERS,NERVOUS SYSTEM DISORDERS,,SEVERE,N,N,N,N,N,N,N,N,POSSIBLE,,RECOVERED/RESOLVED,3.0,Y,,,Y,,,,,
CDISCPILOT01,708,01-708-1019,Xanomeline Low Dose,54.0,68.0,65-80,2.0,WHITE,1.0,M,Y,2013-12-20,2014-01-01,2014-01-01,,13.0,2014-01-01,13.0,1.0,DAY,VISION BLURRED,BLURRED VISION,,VISION BLURRED,,HLT_0120,,HLGT_0598,,EYE DISORDERS,EYE DISORDERS,,MILD,N,N,N,N,N,N,N,N,POSSIBLE,,RECOVERED/RESOLVED,4.0,Y,,Y,Y,,,,,
CDISCPILOT01,708,01-708-1019,Xanomeline Low Dose,54.0,68.0,65-80,2.0,WHITE,1.0,M,Y,2013-12-20,2014-01-01,2014-01-01,,13.0,2014-01-01,13.0,1.0,DAY,DIZZINESS,DIZZINESS,,DIZZINESS,,HLT_0619,,HLGT_0751,,NERVOUS SYSTEM DISORDERS,NERVOUS SYSTEM DISORDERS,,MILD,N,N,N,N,N,N,N,N,POSSIBLE,,RECOVERED/RESOLVED,5.0,Y,,,Y,,,,,
CDISCPILOT01,708,01-708-1032,Xanomeline Low Dose,54.0,62.0,<65,1.0,WHITE,1.0,M,Y,2013-02-09,2013-03-01,2013-02-26,,18.0,2013-03-09,29.0,12.0,DAY,APPLICATION SITE VESICLES,APPLICATION SITE BLISTER,,APPLICATION SITE VESICLES,,HLT_0180,,HLGT_0576,,GENERAL DISORDERS AND ADMINISTRATION SITE CONDITIONS,GENERAL DISORDERS AND ADMINISTRATION SITE CONDITIONS,,MODERATE,N,N,N,N,N,N,N,N,PROBABLE,,RECOVERED/RESOLVED,1.0,Y,Y,Y,Y,,,,DERMATOLOGIC EVENTS,Y
CDISCPILOT01,708,01-708-1084,Xanomeline Low Dose,54.0,73.0,65-80,2.0,WHITE,1.0,F,Y,2013-05-09,2013-11-11,2013-05-23,,15.0,2013-05-23,15.0,1.0,DAY,DIZZINESS,DIZZINESS,,DIZZINESS,,HLT_0619,,HLGT_0751,,NERVOUS SYSTEM DISORDERS,NERVOUS SYSTEM DISORDERS,,MILD,N,N,N,N,N,N,N,N,POSSIBLE,,NOT RECOVERED/NOT RESOLVED,1.0,Y,Y,Y,Y,,,,,
CDISCPILOT01,708,01-708-1084,Xanomeline Low Dose,54.0,73.0,65-80,2.0,WHITE,1.0,F,Y,2013-05-09,2013-11-11,2013-05-23,,15.0,2013-05-23,15.0,1.0,DAY,DIZZINESS,DIZZINESS,,DIZZINESS,,HLT_0619,,HLGT_0751,,NERVOUS SYSTEM DISORDERS,NERVOUS SYSTEM DISORDERS,,MILD,N,N,N,N,N,N,N,N,POSSIBLE,,RECOVERED/RESOLVED,2.0,Y,,,,,,,,
CDISCPILOT01,708,01-708-1084,Xanomeline Low Dose,54.0,73.0,65-80,2.0,WHITE,1.0,F,Y,2013-05-09,2013-11-11,2013-06-09,,32.0,2013-06-09,32.0,1.0,DAY,MYOCARDIAL INFARCTION,MYOCARDIAL INFARCTION,,MYOCARDIAL INFARCTION,,HLT_0649,,HLGT_0688,,CARDIAC DISORDERS,CARDIAC DISORDERS,,MILD,N,N,N,N,N,N,N,N,REMOTE,,NOT RECOVERED/NOT RESOLVED,3.0,Y,,Y,Y,,,,,
CDISCPILOT01,708,01-708-1084,Xanomeline Low Dose,54.0,73.0,65-80,2.0,WHITE,1.0,F,Y,2013-05-09,2013-11-11,2013-06-09,,32.0,2013-06-09,32.0,1.0,DAY,MYOCARDIAL INFARCTION,MYOCARDIAL INFARCTION,,MYOCARDIAL INFARCTION,,HLT_0649,,HLGT_0688,,CARDIAC DISORDERS,CARDIAC DISORDERS,,MILD,N,N,N,N,N,N,N,N,REMOTE,,RECOVERED/RESOLVED,4.0,Y,,,,,,,,
CDISCPILOT01,708,01-708-1084,Xanomeline Low Dose,54.0,73.0,65-80,2.0,WHITE,1.0,F,Y,2013-05-09,2013-11-11,2013-06-23,,46.0,2013-06-23,46.0,1.0,DAY,SINUS BRADYCARDIA,SINUS BRADYCARDIA,,SINUS BRADYCARDIA,,HLT_0644,,HLGT_0500,,CARDIAC DISORDERS,CARDIAC DISORDERS,,MILD,N,N,N,N,N,N,N,N,REMOTE,,NOT RECOVERED/NOT RESOLVED,5.0,Y,,,Y,,,,,
CDISCPILOT01,708,01-708-1084,Xanomeline Low Dose,54.0,73.0,65-80,2.0,WHITE,1.0,F,Y,2013-05-09,2013-11-11,2013-06-23,,46.0,2013-06-23,46.0,1.0,DAY,SINUS BRADYCARDIA,SINUS BRADYCARDIA,,SINUS BRADYCARDIA,,HLT_0644,,HLGT_0500,,CARDIAC DISORDERS,CARDIAC DISORDERS,,MILD,N,N,N,N,N,N,N,N,REMOTE,,RECOVERED/RESOLVED,6.0,Y,,,,,,,,
CDISCPILOT01,708,01-708-1087,Placebo,0.0,74.0,65-80,2.0,WHITE,1.0,F,Y,2012-10-22,2013-04-28,2013-01-19,,90.0,2013-01-19,90.0,1.0,DAY,HEART RATE IRREGULAR,HEARTBEATS IRREGULAR,,HEART RATE IRREGULAR,,HLT_0765,,HLGT_0140,,INVESTIGATIONS,INVESTIGATIONS,,MILD,N,N,N,N,N,N,N,N,POSSIBLE,,NOT RECOVERED/NOT RESOLVED,1.0,Y,Y,Y,Y,,,,,
CDISCPILOT01,708,01-708-1087,Placebo,0.0,74.0,65-80,2.0,WHITE,1.0,F,Y,2012-10-22,2013-04-28,2013-01-19,,90.0,2013-01-19,90.0,1.0,DAY,HEART RATE IRREGULAR,HEARTBEATS IRREGULAR,,HEART RATE IRREGULAR,,HLT_0765,,HLGT_0140,,INVESTIGATIONS,INVESTIGATIONS,,MILD,N,N,N,N,N,N,N,N,POSSIBLE,,RECOVERED/RESOLVED,2.0,Y,,,,,,,,
CDISCPILOT01,708,01-708-1087,Placebo,0.0,74.0,65-80,2.0,WHITE,1.0,F,Y,2012-10-22,2013-04-28,2013-02-04,,106.0,2013-02-08,110.0,5.0,DAY,DIZZINESS,DIZZINESS,,DIZZINESS,,HLT_0619,,HLGT_0751,,NERVOUS SYSTEM DISORDERS,NERVOUS SYSTEM DISORDERS,,MILD,N,N,N,N,N,N,N,N,POSSIBLE,,RECOVERED/RESOLVED,3.0,Y,,Y,Y,,,,,
CDISCPILOT01,708,01-708-1087,Placebo,0.0,74.0,65-80,2.0,WHITE,1.0,F,Y,2012-10-22,2013-04-28,2013-02-16,,118.0,,,,,HEADACHE,HEADACHE,,HEADACHE,,HLT_0064,,HLGT_0344,,NERVOUS SYSTEM DISORDERS,NERVOUS SYSTEM DISORDERS,,MILD,N,N,N,N,N,N,N,N,NONE,,NOT RECOVERED/NOT RESOLVED,4.0,Y,,,Y,,,,,
CDISCPILOT01,708,01-708-1087,Placebo,0.0,74.0,65-80,2.0,WHITE,1.0,F,Y,2012-10-22,2013-04-28,2013-03-16,,146.0,2013-03-16,146.0,1.0,DAY,HEART RATE IRREGULAR,HEARTBEATS IRREGULAR,,HEART RATE IRREGULAR,,HLT_0765,,HLGT_0140,,INVESTIGATIONS,INVESTIGATIONS,,MILD,N,N,N,N,N,N,N,N,POSSIBLE,,NOT RECOVERED/NOT RESOLVED,5.0,Y,,,,,,,,
CDISCPILOT01,708,01-708-1087,Placebo,0.0,74.0,65-80,2.0,WHITE,1.0,F,Y,2012-10-22,2013-04-28,2013-03-16,,146.0,2013-03-16,146.0,1.0,DAY,HEART RATE IRREGULAR,HEARTBEATS IRREGULAR,,HEART RATE IRREGULAR,,HLT_0765,,HLGT_0140,,INVESTIGATIONS,INVESTIGATIONS,,MILD,N,N,N,N,N,N,N,N,POSSIBLE,,RECOVERED/RESOLVED,6.0,Y,,,,,,,,
CDISCPILOT01,708,01-708-1158,Placebo,0.0,81.0,>80,3.0,WHITE,1.0,F,Y,2014-02-08,2014-03-21,2014-02-25,,18.0,,,,,AGITATION,AGITATION,,AGITATION,,HLT_0140,,HLGT_0170,,PSYCHIATRIC DISORDERS,PSYCHIATRIC DISORDERS,,MILD,N,N,N,N,N,N,N,N,REMOTE,,NOT RECOVERED/NOT RESOLVED,1.0,Y,Y,Y,Y,,,,,
CDISCPILOT01,708,01-708-1158,Placebo,0.0,81.0,>80,3.0,WHITE,1.0,F,Y,2014-02-08,2014-03-21,2014-03-22,,43.0,2014-03-22,43.0,1.0,DAY,ERYTHEMA,ERYTHEMA,,ERYTHEMA,,HLT_0284,,HLGT_0192,,SKIN AND SUBCUTANEOUS TISSUE DISORDERS,SKIN AND SUBCUTANEOUS TISSUE DISORDERS,,MILD,N,N,N,N,N,N,N,N,PROBABLE,,RECOVERED/RESOLVED,2.0,Y,,Y,Y,,,,DERMATOLOGIC EVENTS,Y
CDISCPILOT01,708,01-708-1178,Xanomeline High Dose,81.0,77.0,65-80,2.0,BLACK OR AFRICAN AMERICAN,2.0,F,Y,2013-12-29,2014-04-06,2013-12-19,,-10.0,,,,,FLANK PAIN,FLANK PAIN,,FLANK PAIN,,HLT_0484,,HLGT_0543,,MUSCULOSKELETAL AND CONNECTIVE TISSUE DISORDERS,MUSCULOSKELETAL AND CONNECTIVE TISSUE DISORDERS,,MILD,N,N,N,N,N,N,N,N,NONE,,NOT RECOVERED/NOT RESOLVED,1.0,,,,,,,,,
CDISCPILOT01,708,01-708-1178,Xanomeline High Dose,81.0,77.0,65-80,2.0,BLACK OR AFRICAN AMERICAN,2.0,F,Y,2013-12-29,2014-04-06,2014-03-01,,63.0,2014-03-08,70.0,8.0,DAY,NASOPHARYNGITIS,COLD,,NASOPHARYNGITIS,,HLT_0036,,HLGT_0709,,INFECTIONS AND INFESTATIONS,INFECTIONS AND INFESTATIONS,,MILD,N,N,N,N,N,N,N,N,NONE,,RECOVERED/RESOLVED,2.0,Y,Y,Y,Y,,,,,
CDISCPILOT01,708,01-708-1178,Xanomeline High Dose,81.0,77.0,65-80,2.0,BLACK OR AFRICAN AMERICAN,2.0,F,Y,2013-12-29,2014-04-06,2014-03-09,,71.0,2014-04-06,99.0,29.0,DAY,APPLICATION SITE PRURITUS,APPLICATION SITE ITCHING,,APPLICATION SITE PRURITUS,,HLT_0317,,HLGT_0338,,GENERAL DISORDERS AND ADMINISTRATION SITE CONDITIONS,GENERAL DISORDERS AND ADMINISTRATION SITE CONDITIONS,,MILD,N,N,N,N,N,N,N,N,PROBABLE,,NOT RECOVERED/NOT RESOLVED,3.0,Y,,Y,Y,,,,DERMATOLOGIC EVENTS,Y
CDISCPILOT01,708,01-708-1178,Xanomeline High Dose,81.0,77.0,65-80,2.0,BLACK OR AFRICAN AMERICAN,2.0,F,Y,2013-12-29,2014-04-06,2014-03-09,,71.0,,,,,VENTRICULAR SEPTAL DEFECT,VENTRICULAR SEPTAL DEFECT,,VENTRICULAR SEPTAL DEFECT,,HLT_0589,,HLGT_0747,,"CONGENITAL, FAMILIAL AND GENETIC DISORDERS","CONGENITAL, FAMILIAL AND GENETIC DISORDERS",,MILD,N,N,N,N,N,N,N,N,NONE,,NOT RECOVERED/NOT RESOLVED,4.0,Y,,Y,Y,,,,,
CDISCPILOT01,708,01-708-1178,Xanomeline High Dose,81.0,77.0,65-80,2.0,BLACK OR AFRICAN AMERICAN,2.0,F,Y,2013-12-29,2014-04-06,2014-03-09,,71.0,2014-04-06,99.0,29.0,DAY,APPLICATION SITE PRURITUS,APPLICATION SITE ITCHING,,APPLICATION SITE PRURITUS,,HLT_0317,,HLGT_0338,,GENERAL DISORDERS AND ADMINISTRATION SITE CONDITIONS,GENERAL DISORDERS AND ADMINISTRATION SITE CONDITIONS,,MILD,N,N,N,N,N,N,N,N,PROBABLE,,RECOVERED/RESOLVED,5.0,Y,,,,,,,DERMATOLOGIC EVENTS,
CDISCPILOT01,708,01-708-1178,Xanomeline High Dose,81.0,77.0,65-80,2.0,BLACK OR AFRICAN AMERICAN,2.0,F,Y,2013-12-29,2014-04-06,2014-03-24,,86.0,2014-03-26,88.0,3.0,DAY,DIZZINESS,LIGHT-HEADED,,DIZZINESS,,HLT_0619,,HLGT_0751,,NERVOUS SYSTEM DISORDERS,NERVOUS SYSTEM DISORDERS,,SEVERE,N,N,N,N,N,Y,N,N,POSSIBLE,,RECOVERED/RESOLVED,6.0,Y,,Y,Y,,,,,
CDISCPILOT01,708,01-708-1178,Xanomeline High Dose,81.0,77.0,65-80,2.0,BLACK OR AFRICAN AMERICAN,2.0,F,Y,2013-12-29,2014-04-06,2014-03-24,,86.0,2014-03-26,88.0,3.0,DAY,ATRIAL FIBRILLATION,ATRIAL FIBRILLATION,,ATRIAL FIBRILLATION,,HLT_0365,,HLGT_0012,,CARDIAC DISORDERS,CARDIAC DISORDERS,,SEVERE,N,N,N,N,N,Y,N,N,POSSIBLE,,RECOVERED/RESOLVED,7.0,Y,,Y,Y,,,,,
CDISCPILOT01,708,01-708-1178,Xanomeline High Dose,81.0,77.0,65-80,2.0,BLACK OR AFRICAN AMERICAN,2.0,F,Y,2013-12-29,2014-04-06,2014-03-24,,86.0,2014-03-28,90.0,5.0,DAY,CYSTITIS,BLADDER INFECTION,,CYSTITIS,,HLT_0739,,HLGT_0129,,INFECTIONS AND INFESTATIONS,INFECTIONS AND INFESTATIONS,,MILD,N,N,N,N,N,N,N,N,REMOTE,,RECOVERED/RESOLVED,8.0,Y,,,Y,,,,,
CDISCPILOT01,708,01-708-1178,Xanomeline High Dose,81.0,77.0,65-80,2.0,BLACK OR AFRICAN AMERICAN,2.0,F,Y,2013-12-29,2014-04-06,2014-03-24,,86.0,2014-03-24,86.0,1.0,DAY,ALCOHOL USE,ALCOHOL USE,,ALCOHOL USE,,HLT_0138,,HLGT_0182,,SOCIAL CIRCUMSTANCES,SOCIAL CIRCUMSTANCES,,MILD,N,N,N,N,N,N,N,N,NONE,,RECOVERED/RESOLVED,9.0,Y,,Y,Y,,,,,
CDISCPILOT01,708,01-708-1213,Xanomeline High Dose,81.0,76.0,65-80,2.0,WHITE,1.0,F,Y,2013-02-09,2013-02-22,2013-02-22,,14.0,2013-02-22,14.0,1.0,DAY,ATRIAL FIBRILLATION,ATRIAL FIBRILLATION,,ATRIAL FIBRILLATION,,HLT_0365,,HLGT_0012,,CARDIAC DISORDERS,CARDIAC DISORDERS,,MILD,N,N,N,N,N,N,N,N,POSSIBLE,,NOT RECOVERED/NOT RESOLVED,1.0,Y,Y,Y,Y,,,,,
CDISCPILOT01,708,01-708-1213,Xanomeline High Dose,81.0,76.0,65-80,2.0,WHITE,1.0,F,Y,2013-02-09,2013-02-22,2013-02-22,,14.0,2013-02-22,14.0,1.0,DAY,ATRIAL FIBRILLATION,ATRIAL FIBRILLATION,,ATRIAL FIBRILLATION,,HLT_0365,,HLGT_0012,,CARDIAC DISORDERS,CARDIAC DISORDERS,,MILD,N,N,N,N,N,N,N,N,POSSIBLE,,RECOVERED/RESOLVED,2.0,Y,,,,,,,,
CDISCPILOT01,708,01-708-1216,Xanomeline High Dose,81.0,78.0,65-80,2.0,WHITE,1.0,M,Y,2012-10-24,2012-11-29,2012-11-06,,14.0,,,,,APPLICATION SITE PRURITUS,APPLICATION SITE ITCHING,,APPLICATION SITE PRURITUS,,HLT_0317,,HLGT_0338,,GENERAL DISORDERS AND ADMINISTRATION SITE CONDITIONS,GENERAL DISORDERS AND ADMINISTRATION SITE CONDITIONS,,MILD,N,N,N,N,N,N,N,N,PROBABLE,,NOT RECOVERED/NOT RESOLVED,1.0,Y,Y,Y,Y,,,,DERMATOLOGIC EVENTS,Y
CDISCPILOT01,708,01-708-1216,Xanomeline High Dose,81.0,78.0,65-80,2.0,WHITE,1.0,M,Y,2012-10-24,2012-11-29,2012-11-06,,14.0,2012-12-13,51.0,38.0,DAY,APPLICATION SITE ERYTHEMA,APPLICATION SITE REDNESS,,APPLICATION SITE ERYTHEMA,,HLT_0617,,HLGT_0152,,GENERAL DISORDERS AND ADMINISTRATION SITE CONDITIONS,GENERAL DISORDERS AND ADMINISTRATION SITE CONDITIONS,,MILD,N,N,N,N,N,N,N,N,PROBABLE,,NOT RECOVERED/NOT RESOLVED,2.0,Y,,,Y,,,,DERMATOLOGIC EVENTS,
CDISCPILOT01,708,01-708-1216,Xanomeline High Dose,81.0,78.0,65-80,2.0,WHITE,1.0,M,Y,2012-10-24,2012-11-29,2012-11-22,,30.0,,,,,APPLICATION SITE SWELLING,APPLICATION SITE SWELLING,,APPLICATION SITE SWELLING,,HLT_0105,,HLGT_0236,,GENERAL DISORDERS AND ADMINISTRATION SITE CONDITIONS,GENERAL DISORDERS AND ADMINISTRATION SITE CONDITIONS,,MILD,N,N,N,N,N,N,N,N,PROBABLE,,NOT RECOVERED/NOT RESOLVED,3.0,Y,,,Y,,,,DERMATOLOGIC EVENTS,
CDISCPILOT01,708,01-708-1216,Xanomeline High Dose,81.0,78.0,65-80,2.0,WHITE,1.0,M,Y,2012-10-24,2012-11-29,2012-11-06,,14.0,2012-12-13,51.0,38.0,DAY,APPLICATION SITE ERYTHEMA,APPLICATION SITE REDNESS,,APPLICATION SITE ERYTHEMA,,HLT_0617,,HLGT_0152,,GENERAL DISORDERS AND ADMINISTRATION SITE CONDITIONS,GENERAL DISORDERS AND ADMINISTRATION SITE CONDITIONS,,MILD,N,N,N,N,N,N,N,N,PROBABLE,,RECOVERED/RESOLVED,4.0,Y,,,,,,,DERMATOLOGIC EVENTS,
CDISCPILOT01,708,01-708-1253,Placebo,0.0,61.0,<65,1.0,WHITE,1.0,M,Y,2013-05-07,2013-11-05,2013-05-06,,-1.0,2013-05-16,10.0,11.0,DAY,COUGH,COUGH,,COUGH,,HLT_0701,,HLGT_0280,,"RESPIRATORY, THORACIC AND MEDIASTINAL DISORDERS","RESPIRATORY, THORACIC AND MEDIASTINAL DISORDERS",,MILD,N,N,N,N,N,N,N,N,NONE,,NOT RECOVERED/NOT RESOLVED,1.0,,,,,,,,,
CDISCPILOT01,708,01-708-1253,Placebo,0.0,61.0,<65,1.0,WHITE,1.0,M,Y,2013-05-07,2013-11-05,2013-05-06,,-1.0,2013-05-16,10.0,11.0,DAY,CONJUNCTIVITIS,CONJUNCTIVITIS,,CONJUNCTIVITIS,,HLT_0584,,HLGT_0335,,EYE DISORDERS,EYE DISORDERS,,MILD,N,N,N,N,N,N,N,N,NONE,,NOT RECOVERED/NOT RESOLVED,2.0,,,,,,,,,
CDISCPILOT01,708,01-708-1253,Placebo,0.0,61.0,<65,1.0,WHITE,1.0,M,Y,2013-05-07,2013-11-05,2013-05-07,,1.0,2013-05-10,4.0,4.0,DAY,HEART RATE INCREASED,HEART RATE INCREASED,,HEART RATE INCREASED,,HLT_0646,,HLGT_0673,,INVESTIGATIONS,INVESTIGATIONS,,MILD,N,N,N,N,N,N,N,N,POSSIBLE,,NOT RECOVERED/NOT RESOLVED,3.0,Y,Y,Y,Y,,,,,
CDISCPILOT01,708,01-708-1253,Placebo,0.0,61.0,<65,1.0,WHITE,1.0,M,Y,2013-05-07,2013-11-05,2013-05-06,,-1.0,2013-05-16,10.0,11.0,DAY,COUGH,COUGH,,COUGH,,HLT_0701,,HLGT_0280,,"RESPIRATORY, THORACIC AND MEDIASTINAL DISORDERS","RESPIRATORY, THORACIC AND MEDIASTINAL DISORDERS",,MILD,N,N,N,N,N,N,N,N,NONE,,RECOVERED/RESOLVED,4.0,,,,,,,,,
CDISCPILOT01,708,01-708-1253,Placebo,0.0,61.0,<65,1.0,WHITE,1.0,M,Y,2013-05-07,2013-11-05,2013-05-06,,-1.0,2013-05-16,10.0,11.0,DAY,CONJUNCTIVITIS,CONJUNCTIVITIS,,CONJUNCTIVITIS,,HLT_0584,,HLGT_0335,,EYE DISORDERS,EYE DISORDERS,,MILD,N,N,N,N,N,N,N,N,NONE,,RECOVERED/RESOLVED,5.0,,,,,,,,,
CDISCPILOT01,708,01-708-1253,Placebo,0.0,61.0,<65,1.0,WHITE,1.0,M,Y,2013-05-07,2013-11-05,2013-05-07,,1.0,2013-05-10,4.0,4.0,DAY,HEART RATE INCREASED,HEART RATE INCREASED,,HEART RATE INCREASED,,HLT_0646,,HLGT_0673,,INVESTIGATIONS,INVESTIGATIONS,,MILD,N,N,N,N,N,N,N,N,POSSIBLE,,RECOVERED/RESOLVED,6.0,Y,,,,,,,,
CDISCPILOT01,708,01-708-1253,Placebo,0.0,61.0,<65,1.0,WHITE,1.0,M,Y,2013-05-07,2013-11-05,2013-06-07,,32.0,2013-06-07,32.0,1.0,DAY,DIZZINESS,DIZZINESS,,DIZZINESS,,HLT_0619,,HLGT_0751,,NERVOUS SYSTEM DISORDERS,NERVOUS SYSTEM DISORDERS,,MILD,N,N,N,N,N,N,N,N,POSSIBLE,,NOT RECOVERED/NOT RESOLVED,7.0,Y,,Y,Y,,,,,
CDISCPILOT01,708,01-708-1253,Placebo,0.0,61.0,<65,1.0,WHITE,1.0,M,Y,2013-05-07,2013-11-05,2013-06-07,,32.0,2013-06-07,32.0,1.0,DAY,DIZZINESS,DIZZINESS,,DIZZINESS,,HLT_0619,,HLGT_0751,,NERVOUS SYSTEM DISORDERS,NERVOUS SYSTEM DISORDERS,,MILD,N,N,N,N,N,N,N,N,POSSIBLE,,RECOVERED/RESOLVED,8.0,Y,,,,,,,,
CDISCPILOT01,708,01-708-1272,Xanomeline Low Dose,54.0,82.0,>80,3.0,WHITE,1.0,M,Y,2013-02-06,2013-03-22,2013-02-11,,6.0,2013-02-11,6.0,1.0,DAY,DIARRHOEA,DIARRHEA,,DIARRHOEA,,HLT_0148,,HLGT_0588,,GASTROINTESTINAL DISORDERS,GASTROINTESTINAL DISORDERS,,MILD,N,N,N,N,N,N,N,N,NONE,,RECOVERED/RESOLVED,1.0,Y,Y,Y,Y,,,,,
CDISCPILOT01,708,01-708-1272,Xanomeline Low Dose,54.0,82.0,>80,3.0,WHITE,1.0,M,Y,2013-02-06,2013-03-22,2013-02-18,,13.0,2013-02-18,13.0,1.0,DAY,MUSCLE SPASMS,LEG CRAMPS,,MUSCLE SPASMS,,HLT_0078,,HLGT_0750,,MUSCULOSKELETAL AND CONNECTIVE TISSUE DISORDERS,MUSCULOSKELETAL AND CONNECTIVE TISSUE DISORDERS,,SEVERE,N,N,N,N,N,N,N,N,NONE,,RECOVERED/RESOLVED,2.0,Y,,Y,Y,,,,,
CDISCPILOT01,708,01-708-1272,Xanomeline Low Dose,54.0,82.0,>80,3.0,WHITE,1.0,M,Y,2013-02-06,2013-03-22,2013-02-21,,16.0,2013-03-20,43.0,28.0,DAY,VENTRICULAR EXTRASYSTOLES,VENTRICULAR BIGEMINY,,VENTRICULAR EXTRASYSTOLES,,HLT_0050,,HLGT_0594,,CARDIAC DISORDERS,CARDIAC DISORDERS,,MILD,N,N,N,N,N,N,N,N,REMOTE,,NOT RECOVERED/NOT RESOLVED,3.0,Y,,Y,Y,,,,,
CDISCPILOT01,708,01-708-1272,Xanomeline Low Dose,54.0,82.0,>80,3.0,WHITE,1.0,M,Y,2013-02-06,2013-03-22,2013-02-27,,22.0,2013-02-27,22.0,1.0,DAY,APPLICATION SITE DERMATITIS,APPLICATION SITE RASH,,APPLICATION SITE DERMATITIS,,HLT_0343,,HLGT_0241,,GENERAL DISORDERS AND ADMINISTRATION SITE CONDITIONS,GENERAL DISORDERS AND ADMINISTRATION SITE CONDITIONS,,MILD,N,N,N,N,N,N,N,N,PROBABLE,,RECOVERED/RESOLVED,4.0,Y,,Y,Y,,,,DERMATOLOGIC EVENTS,Y
CDISCPILOT01,708,01-708-1272,Xanomeline Low Dose,54.0,82.0,>80,3.0,WHITE,1.0,M,Y,2013-02-06,2013-03-22,2013-03-01,,24.0,2013-03-07,30.0,7.0,DAY,COUGH,COUGH,,COUGH,,HLT_0701,,HLGT_0280,,"RESPIRATORY, THORACIC AND MEDIASTINAL DISORDERS","RESPIRATORY, THORACIC AND MEDIASTINAL DISORDERS",,MILD,N,N,N,N,N,N,N,N,NONE,,NOT RECOVERED/NOT RESOLVED,5.0,Y,,Y,Y,,,,,
CDISCPILOT01,708,01-708-1272,Xanomeline Low Dose,54.0,82.0,>80,3.0,WHITE,1.0,M,Y,2013-02-06,2013-03-22,2013-03-01,,24.0,2013-03-07,30.0,7.0,DAY,NASOPHARYNGITIS,COLD,,NASOPHARYNGITIS,,HLT_0036,,HLGT_0709,,INFECTIONS AND INFESTATIONS,INFECTIONS AND INFESTATIONS,,MILD,N,N,N,N,N,N,N,N,NONE,,NOT RECOVERED/NOT RESOLVED,6.0,Y,,Y,Y,,,,,
CDISCPILOT01,708,01-708-1272,Xanomeline Low Dose,54.0,82.0,>80,3.0,WHITE,1.0,M,Y,2013-02-06,2013-03-22,2013-03-07,,30.0,2013-03-07,30.0,1.0,DAY,HEADACHE,HEADACHE,,HEADACHE,,HLT_0064,,HLGT_0344,,NERVOUS SYSTEM DISORDERS,NERVOUS SYSTEM DISORDERS,,MILD,N,N,N,N,N,N,N,N,NONE,,NOT RECOVERED/NOT RESOLVED,7.0,Y,,Y,Y,,,,,
CDISCPILOT01,708,01-708-1272,Xanomeline Low Dose,54.0,82.0,>80,3.0,WHITE,1.0,M,Y,2013-02-06,2013-03-22,2013-03-01,,24.0,2013-03-07,30.0,7.0,DAY,COUGH,COUGH,,COUGH,,HLT_0701,,HLGT_0280,,"RESPIRATORY, THORACIC AND MEDIASTINAL DISORDERS","RESPIRATORY, THORACIC AND MEDIASTINAL DISORDERS",,MILD,N,N,N,N,N,N,N,N,NONE,,RECOVERED/RESOLVED,8.0,Y,,,,,,,,
CDISCPILOT01,708,01-708-1272,Xanomeline Low Dose,54.0,82.0,>80,3.0,WHITE,1.0,M,Y,2013-02-06,2013-03-22,2013-03-01,,24.0,2013-03-07,30.0,7.0,DAY,NASOPHARYNGITIS,COLD,,NASOPHARYNGITIS,,HLT_0036,,HLGT_0709,,INFECTIONS AND INFESTATIONS,INFECTIONS AND INFESTATIONS,,MILD,N,N,N,N,N,N,N,N,NONE,,RECOVERED/RESOLVED,9.0,Y,,,,,,,,
CDISCPILOT01,708,01-708-1272,Xanomeline Low Dose,54.0,82.0,>80,3.0,WHITE,1.0,M,Y,2013-02-06,2013-03-22,2013-03-07,,30.0,2013-03-07,30.0,1.0,DAY,HEADACHE,HEADACHE,,HEADACHE,,HLT_0064,,HLGT_0344,,NERVOUS SYSTEM DISORDERS,NERVOUS SYSTEM DISORDERS,,MILD,N,N,N,N,N,N,N,N,NONE,,RECOVERED/RESOLVED,10.0,Y,,,,,,,,
CDISCPILOT01,708,01-708-1272,Xanomeline Low Dose,54.0,82.0,>80,3.0,WHITE,1.0,M,Y,2013-02-06,2013-03-22,2013-03-19,,42.0,2013-03-19,42.0,1.0,DAY,HOT FLUSH,HOT FLASHES,,HOT FLUSH,,HLT_0737,,HLGT_0773,,VASCULAR DISORDERS,VASCULAR DISORDERS,,MILD,N,N,N,N,N,N,N,N,NONE,,RECOVERED/RESOLVED,11.0,Y,,Y,Y,,,,,
CDISCPILOT01,708,01-708-1272,Xanomeline Low Dose,54.0,82.0,>80,3.0,WHITE,1.0,M,Y,2013-02-06,2013-03-22,2013-02-21,,16.0,2013-03-20,43.0,28.0,DAY,VENTRICULAR EXTRASYSTOLES,VENTRICULAR BIGEMINY,,VENTRICULAR EXTRASYSTOLES,,HLT_0050,,HLGT_0594,,CARDIAC DISORDERS,CARDIAC DISORDERS,,MILD,N,N,N,N,N,N,N,N,REMOTE,,RECOVERED/RESOLVED,12.0,Y,,,,,,,,
CDISCPILOT01,708,01-708-1286,Placebo,0.0,80.0,65-80,2.0,BLACK OR AFRICAN AMERICAN,2.0,F,Y,2013-09-10,2014-03-08,2013-09-12,,3.0,,,,,APPLICATION SITE PRURITUS,APPLICATION SITE ITCHING,,APPLICATION SITE PRURITUS,,HLT_0317,,HLGT_0338,,GENERAL DISORDERS AND ADMINISTRATION SITE CONDITIONS,GENERAL DISORDERS AND ADMINISTRATION SITE CONDITIONS,,MILD,N,N,N,N,N,N,N,N,PROBABLE,,NOT RECOVERED/NOT RESOLVED,1.0,Y,Y,Y,Y,,,,DERMATOLOGIC EVENTS,Y
CDISCPILOT01,708,01-708-1286,Placebo,0.0,80.0,65-80,2.0,BLACK OR AFRICAN AMERICAN,2.0,F,Y,2013-09-10,2014-03-08,2013-09-23,,14.0,,,,,MYOCARDIAL INFARCTION,INFERIOR MYOCARDIAL INFARCTION,,MYOCARDIAL INFARCTION,,HLT_0649,,HLGT_0688,,CARDIAC DISORDERS,CARDIAC DISORDERS,,MILD,N,N,N,N,N,N,N,N,REMOTE,,NOT RECOVERED/NOT RESOLVED,2.0,Y,,Y,Y,,,,,
CDISCPILOT01,708,01-708-1286,Placebo,0.0,80.0,65-80,2.0,BLACK OR AFRICAN AMERICAN,2.0,F,Y,2013-09-10,2014-03-08,2014-02-18,,162.0,2014-02-18,162.0,1.0,DAY,ABDOMINAL PAIN,ABDOMINAL PAIN,,ABDOMINAL PAIN,,HLT_0217,,HLGT_0419,,GASTROINTESTINAL DISORDERS,GASTROINTESTINAL DISORDERS,,MILD,N,N,N,N,N,N,N,N,REMOTE,,RECOVERED/RESOLVED,3.0,Y,,Y,Y,,,,,
CDISCPILOT01,708,01-708-1286,Placebo,0.0,80.0,65-80,2.0,BLACK OR AFRICAN AMERICAN,2.0,F,Y,2013-09-10,2014-03-08,2014-02-18,,162.0,2014-02-18,162.0,1.0,DAY,CONSTIPATION,CONSTIPATION,,CONSTIPATION,,HLT_0402,,HLGT_0635,,GASTROINTESTINAL DISORDERS,GASTROINTESTINAL DISORDERS,,MILD,N,N,N,N,N,N,N,N,REMOTE,,RECOVERED/RESOLVED,4.0,Y,,,Y,,,,,
CDISCPILOT01,708,01-708-1296,Placebo,0.0,57.0,<65,1.0,BLACK OR AFRICAN AMERICAN,2.0,M,Y,2013-06-14,2013-12-12,2013-06-27,,14.0,2013-06-27,14.0,1.0,DAY,ATRIAL HYPERTROPHY,LEFT ATRIAL HYPERTROPHY,,ATRIAL HYPERTROPHY,,HLT_0271,,HLGT_0067,,CARDIAC DISORDERS,CARDIAC DISORDERS,,MILD,N,N,N,N,N,N,N,N,REMOTE,,NOT RECOVERED/NOT RESOLVED,1.0,Y,Y,Y,Y,,,,,
CDISCPILOT01,708,01-708-1296,Placebo,0.0,57.0,<65,1.0,BLACK OR AFRICAN AMERICAN,2.0,M,Y,2013-06-14,2013-12-12,2013-06-27,,14.0,2013-06-27,14.0,1.0,DAY,ATRIAL HYPERTROPHY,LEFT ATRIAL HYPERTROPHY,,ATRIAL HYPERTROPHY,,HLT_0271,,HLGT_0067,,CARDIAC DISORDERS,CARDIAC DISORDERS,,MILD,N,N,N,N,N,N,N,N,REMOTE,,RECOVERED/RESOLVED,2.0,Y,,,,,,,,
CDISCPILOT01,708,01-708-1296,Placebo,0.0,57.0,<65,1.0,BLACK OR AFRICAN AMERICAN,2.0,M,Y,2013-06-14,2013-12-12,2013-09-04,,83.0,2013-09-18,97.0,15.0,DAY,APPLICATION SITE PRURITUS,APPLICATION SITE ITCHING,,APPLICATION SITE PRURITUS,,HLT_0317,,HLGT_0338,,GENERAL DISORDERS AND ADMINISTRATION SITE CONDITIONS,GENERAL DISORDERS AND ADMINISTRATION SITE CONDITIONS,,MILD,N,N,N,N,N,N,N,N,PROBABLE,,NOT RECOVERED/NOT RESOLVED,3.0,Y,,Y,Y,,,,DERMATOLOGIC EVENTS,Y
CDISCPILOT01,708,01-708-1296,Placebo,0.0,57.0,<65,1.0,BLACK OR AFRICAN AMERICAN,2.0,M,Y,2013-06-14,2013-12-12,2013-09-04,,83.0,2013-09-18,97.0,15.0,DAY,APPLICATION SITE PRURITUS,APPLICATION SITE ITCHING,,APPLICATION SITE PRURITUS,,HLT_0317,,HLGT_0338,,GENERAL DISORDERS AND ADMINISTRATION SITE CONDITIONS,GENERAL DISORDERS AND ADMINISTRATION SITE CONDITIONS,,MILD,N,N,N,N,N,N,N,N,PROBABLE,,RECOVERED/RESOLVED,4.0,Y,,,,,,,DERMATOLOGIC EVENTS,
CDISCPILOT01,708,01-708-1296,Placebo,0.0,57.0,<65,1.0,BLACK OR AFRICAN AMERICAN,2.0,M,Y,2013-06-14,2013-12-12,2013-10-04,,113.0,2013-10-30,139.0,27.0,DAY,APPLICATION SITE VESICLES,APPLICATION SITE BLISTER,,APPLICATION SITE VESICLES,,HLT_0180,,HLGT_0576,,GENERAL DISORDERS AND ADMINISTRATION SITE CONDITIONS,GENERAL DISORDERS AND ADMINISTRATION SITE CONDITIONS,,MILD,N,N,N,N,N,N,N,N,PROBABLE,,NOT RECOVERED/NOT RESOLVED,5.0,Y,,,Y,,,,DERMATOLOGIC EVENTS,
CDISCPILOT01,708,01-708-1296,Placebo,0.0,57.0,<65,1.0,BLACK OR AFRICAN AMERICAN,2.0,M,Y,2013-06-14,2013-12-12,2013-10-04,,113.0,2013-10-30,139.0,27.0,DAY,APPLICATION SITE VESICLES,APPLICATION SITE BLISTER,,APPLICATION SITE VESICLES,,HLT_0180,,HLGT_0576,,GENERAL DISORDERS AND ADMINISTRATION SITE CONDITIONS,GENERAL DISORDERS AND ADMINISTRATION SITE CONDITIONS,,MILD,N,N,N,N,N,N,N,N,PROBABLE,,RECOVERED/RESOLVED,6.0,Y,,,,,,,DERMATOLOGIC EVENTS,
CDISCPILOT01,708,01-708-1296,Placebo,0.0,57.0,<65,1.0,BLACK OR AFRICAN AMERICAN,2.0,M,Y,2013-06-14,2013-12-12,2013-12-07,,177.0,2013-12-07,177.0,1.0,DAY,PAIN IN EXTREMITY,PAIN IN THIGH,,PAIN IN EXTREMITY,,HLT_0213,,HLGT_0764,,MUSCULOSKELETAL AND CONNECTIVE TISSUE DISORDERS,MUSCULOSKELETAL AND CONNECTIVE TISSUE DISORDERS,,MILD,N,N,N,N,N,N,N,N,REMOTE,,RECOVERED/RESOLVED,7.0,Y,,Y,Y,,,,,
CDISCPILOT01,708,01-708-1297,Xanomeline Low Dose,54.0,61.0,<65,1.0,WHITE,1.0,M,Y,2013-01-25,2013-05-03,2013-04-02,,68.0,,,,,APPLICATION SITE PRURITUS,APPLICATION SITE ITCHING,,APPLICATION SITE PRURITUS,,HLT_0317,,HLGT_0338,,GENERAL DISORDERS AND ADMINISTRATION SITE CONDITIONS,GENERAL DISORDERS AND ADMINISTRATION SITE CONDITIONS,,MILD,N,N,N,N,N,N,N,N,PROBABLE,,NOT RECOVERED/NOT RESOLVED,1.0,Y,Y,Y,Y,,,,DERMATOLOGIC EVENTS,Y
CDISCPILOT01,708,01-708-1297,Xanomeline Low Dose,54.0,61.0,<65,1.0,WHITE,1.0,M,Y,2013-01-25,2013-05-03,2013-04-02,,68.0,,,,,APPLICATION SITE SWELLING,APPLICATION SITE SWELLING,,APPLICATION SITE SWELLING,,HLT_0105,,HLGT_0236,,GENERAL DISORDERS AND ADMINISTRATION SITE CONDITIONS,GENERAL DISORDERS AND ADMINISTRATION SITE CONDITIONS,,MILD,N,N,N,N,N,N,N,N,PROBABLE,,NOT RECOVERED/NOT RESOLVED,2.0,Y,,,Y,,,,DERMATOLOGIC EVENTS,
CDISCPILOT01,708,01-708-1297,Xanomeline Low Dose,54.0,61.0,<65,1.0,WHITE,1.0,M,Y,2013-01-25,2013-05-03,2013-05-08,,104.0,,,,,SINUS BRADYCARDIA,SINUS BRADYCARDIA,,SINUS BRADYCARDIA,,HLT_0644,,HLGT_0500,,CARDIAC DISORDERS,CARDIAC DISORDERS,,MILD,N,N,N,N,N,N,N,N,REMOTE,,NOT RECOVERED/NOT RESOLVED,3.0,Y,,Y,Y,,,,,
CDISCPILOT01,708,01-708-1316,Placebo,0.0,74.0,65-80,2.0,WHITE,1.0,F,Y,2013-08-23,2014-03-01,2014-01-29,,160.0,,,,,HEADACHE,HEADACHE,,HEADACHE,,HLT_0064,,HLGT_0344,,NERVOUS SYSTEM DISORDERS,NERVOUS SYSTEM DISORDERS,,MILD,N,N,N,N,N,N,N,N,POSSIBLE,,NOT RECOVERED/NOT RESOLVED,1.0,Y,Y,Y,Y,,,,,
CDISCPILOT01,708,01-708-1316,Placebo,0.0,74.0,65-80,2.0,WHITE,1.0,F,Y,2013-08-23,2014-03-01,2014-02-15,,177.0,,,,,APPLICATION SITE ERYTHEMA,APPLICATION SITE REDNESS,,APPLICATION SITE ERYTHEMA,,HLT_0617,,HLGT_0152,,GENERAL DISORDERS AND ADMINISTRATION SITE CONDITIONS,GENERAL DISORDERS AND ADMINISTRATION SITE CONDITIONS,,MILD,N,N,N,N,N,N,N,N,PROBABLE,,NOT RECOVERED/NOT RESOLVED,2.0,Y,,Y,Y,,,,DERMATOLOGIC EVENTS,Y
CDISCPILOT01,708,01-708-1336,Xanomeline High Dose,81.0,73.0,65-80,2.0,WHITE,1.0,M,Y,2012-12-07,2013-06-05,2012-12-18,,12.0,2012-12-18,12.0,1.0,DAY,DIZZINESS,LIGHTHEADEDNESS,,DIZZINESS,,HLT_0619,,HLGT_0751,,NERVOUS SYSTEM DISORDERS,NERVOUS SYSTEM DISORDERS,,MILD,N,N,N,N,N,N,N,N,POSSIBLE,,RECOVERED/RESOLVED,1.0,Y,Y,Y,Y,,,,,
CDISCPILOT01,708,01-708-1336,Xanomeline High Dose,81.0,73.0,65-80,2.0,WHITE,1.0,M,Y,2012-12-07,2013-06-05,2013-01-12,,37.0,2013-01-12,37.0,1.0,DAY,APPLICATION SITE PRURITUS,APPLICATION SITE ITCHING,,APPLICATION SITE PRURITUS,,HLT_0317,,HLGT_0338,,GENERAL DISORDERS AND ADMINISTRATION SITE CONDITIONS,GENERAL DISORDERS AND ADMINISTRATION SITE CONDITIONS,,MILD,N,N,N,N,N,N,N,N,PROBABLE,,RECOVERED/RESOLVED,2.0,Y,,Y,Y,,,,DERMATOLOGIC EVENTS,Y
CDISCPILOT01,708,01-708-1336,Xanomeline High Dose,81.0,73.0,65-80,2.0,WHITE,1.0,M,Y,2012-12-07,2013-06-05,2013-02-02,,58.0,2013-02-02,58.0,1.0,DAY,DIZZINESS,LIGHT HEADEDNESS,,DIZZINESS,,HLT_0619,,HLGT_0751,,NERVOUS SYSTEM DISORDERS,NERVOUS SYSTEM DISORDERS,,MILD,N,N,N,N,N,N,N,N,POSSIBLE,,RECOVERED/RESOLVED,3.0,Y,,,,,,,,
CDISCPILOT01,708,01-708-1336,Xanomeline High Dose,81.0,73.0,65-80,2.0,WHITE,1.0,M,Y,2012-12-07,2013-06-05,2013-04-10,,125.0,2013-06-05,181.0,57.0,DAY,APPLICATION SITE PRURITUS,APPLICATION SITE ITCHING,,APPLICATION SITE PRURITUS,,HLT_0317,,HLGT_0338,,GENERAL DISORDERS AND ADMINISTRATION SITE CONDITIONS,GENERAL DISORDERS AND ADMINISTRATION SITE CONDITIONS,,MILD,N,N,N,N,N,N,N,N,PROBABLE,,NOT RECOVERED/NOT RESOLVED,4.0,Y,,,,,,,DERMATOLOGIC EVENTS,
CDISCPILOT01,708,01-708-1336,Xanomeline High Dose,81.0,73.0,65-80,2.0,WHITE,1.0,M,Y,2012-12-07,2013-06-05,2013-04-10,,125.0,2013-06-05,181.0,57.0,DAY,APPLICATION SITE ERYTHEMA,APPLICATION SITE REDNESS,,APPLICATION SITE ERYTHEMA,,HLT_0617,,HLGT_0152,,GENERAL DISORDERS AND ADMINISTRATION SITE CONDITIONS,GENERAL DISORDERS AND ADMINISTRATION SITE CONDITIONS,,MILD,N,N,N,N,N,N,N,N,PROBABLE,,NOT RECOVERED/NOT RESOLVED,5.0,Y,,,Y,,,,DERMATOLOGIC EVENTS,
CDISCPILOT01,708,01-708-1336,Xanomeline High Dose,81.0,73.0,65-80,2.0,WHITE,1.0,M,Y,2012-12-07,2013-06-05,2013-04-10,,125.0,2013-06-05,181.0,57.0,DAY,APPLICATION SITE PRURITUS,APPLICATION SITE ITCHING,,APPLICATION SITE PRURITUS,,HLT_0317,,HLGT_0338,,GENERAL DISORDERS AND ADMINISTRATION SITE CONDITIONS,GENERAL DISORDERS AND ADMINISTRATION SITE CONDITIONS,,MILD,N,N,N,N,N,N,N,N,PROBABLE,,RECOVERED/RESOLVED,6.0,Y,,,,,,,DERMATOLOGIC EVENTS,
CDISCPILOT01,708,01-708-1336,Xanomeline High Dose,81.0,73.0,65-80,2.0,WHITE,1.0,M,Y,2012-12-07,2013-06-05,2013-04-10,,125.0,2013-06-05,181.0,57.0,DAY,APPLICATION SITE ERYTHEMA,APPLICATION SITE REDNESS,,APPLICATION SITE ERYTHEMA,,HLT_0617,,HLGT_0152,,GENERAL DISORDERS AND ADMINISTRATION SITE CONDITIONS,GENERAL DISORDERS AND ADMINISTRATION SITE CONDITIONS,,MILD,N,N,N,N,N,N,N,N,PROBABLE,,RECOVERED/RESOLVED,7.0,Y,,,,,,,DERMATOLOGIC EVENTS,
CDISCPILOT01,708,01-708-1347,Xanomeline High Dose,81.0,61.0,<65,1.0,WHITE,1.0,F,Y,2013-04-20,2013-06-18,2013-06-13,,55.0,2013-06-25,67.0,13.0,DAY,PRURITUS,ITCHING,,PRURITUS,,HLT_0778,,HLGT_0695,,SKIN AND SUBCUTANEOUS TISSUE DISORDERS,SKIN AND SUBCUTANEOUS TISSUE DISORDERS,,MILD,N,N,N,N,N,N,N,N,PROBABLE,,NOT RECOVERED/NOT RESOLVED,1.0,Y,Y,Y,Y,,,,DERMATOLOGIC EVENTS,Y
CDISCPILOT01,708,01-708-1347,Xanomeline High Dose,81.0,61.0,<65,1.0,WHITE,1.0,F,Y,2013-04-20,2013-06-18,2013-06-13,,55.0,2013-06-25,67.0,13.0,DAY,ERYTHEMA,ERYTHEMA,,ERYTHEMA,,HLT_0284,,HLGT_0192,,SKIN AND SUBCUTANEOUS TISSUE DISORDERS,SKIN AND SUBCUTANEOUS TISSUE DISORDERS,,MODERATE,N,N,N,N,N,N,N,N,PROBABLE,,NOT RECOVERED/NOT RESOLVED,2.0,Y,,,Y,,,,DERMATOLOGIC EVENTS,
CDISCPILOT01,708,01-708-1347,Xanomeline High Dose,81.0,61.0,<65,1.0,WHITE,1.0,F,Y,2013-04-20,2013-06-18,2013-06-13,,55.0,2013-06-25,67.0,13.0,DAY,APPLICATION SITE ERYTHEMA,APPLICATION SITE REDNESS,,APPLICATION SITE ERYTHEMA,,HLT_0617,,HLGT_0152,,GENERAL DISORDERS AND ADMINISTRATION SITE CONDITIONS,GENERAL DISORDERS AND ADMINISTRATION SITE CONDITIONS,,MODERATE,N,N,N,N,N,N,N,N,PROBABLE,,NOT RECOVERED/NOT RESOLVED,3.0,Y,,Y,Y,,,,DERMATOLOGIC EVENTS,
CDISCPILOT01,708,01-708-1347,Xanomeline High Dose,81.0,61.0,<65,1.0,WHITE,1.0,F,Y,2013-04-20,2013-06-18,2013-06-13,,55.0,2013-06-25,67.0,13.0,DAY,APPLICATION SITE SWELLING,APPLICATION SITE SWELLING,,APPLICATION SITE SWELLING,,HLT_0105,,HLGT_0236,,GENERAL DISORDERS AND ADMINISTRATION SITE CONDITIONS,GENERAL DISORDERS AND ADMINISTRATION SITE CONDITIONS,,MODERATE,N,N,N,N,N,N,N,N,PROBABLE,,NOT RECOVERED/NOT RESOLVED,4.0,Y,,,Y,,,,DERMATOLOGIC EVENTS,
CDISCPILOT01,708,01-708-1347,Xanomeline High Dose,81.0,61.0,<65,1.0,WHITE,1.0,F,Y,2013-04-20,2013-06-18,2013-06-13,,55.0,2013-06-25,67.0,13.0,DAY,PRURITUS,ITCHING,,PRURITUS,,HLT_0778,,HLGT_0695,,SKIN AND SUBCUTANEOUS TISSUE DISORDERS,SKIN AND SUBCUTANEOUS TISSUE DISORDERS,,MILD,N,N,N,N,N,N,N,N,PROBABLE,,RECOVERED/RESOLVED,5.0,Y,,,,,,,DERMATOLOGIC EVENTS,
