STUDYID,DOMAIN,USUBJID,AESEQ,AESPID,AETERM,AELLT,AELLTCD,AEDECOD,AEPTCD,AEHLT,AEHLTCD,AEHLGT,AEHLGTCD,AEBODSYS,AEBDSYCD,AESOC,AESOCCD,AESEV,AESER,AEACN,AEREL,AEOUT,AESCAN,AESCONG,AESDISAB,AESDTH,AESHOSP,AESLIFE,AESOD,EPOCH,AEDTC,AESTDTC,AEENDTC,AEDY,AESTDY,AEENDY
CDISCPILOT01,AE,01-701-1015,1.0,E07,APPLICATION SITE ERYTHEMA,APPLICATION SITE REDNESS,,APPLICATION SITE ERYTHEMA,,HLT_0617,,HLGT_0152,,GENERAL DISORDERS AND ADMINISTRATION SITE CONDITIONS,,GENERAL DISORDERS AND ADMINISTRATION SITE CONDITIONS,,MILD,N,,PROBABLE,NOT RECOVERED/NOT RESOLVED,N,N,N,N,N,N,N,TREATMENT,2014-01-16,2014-01-03,,15.0,2.0,
CDISCPILOT01,AE,01-701-1015,2.0,E08,APPLICATION SITE PRURITUS,APPLICATION SITE ITCHING,,APPLICATION SITE PRURITUS,,HLT_0317,,HLGT_0338,,GENERAL DISORDERS AND ADMINISTRATION SITE CONDITIONS,,GENERAL DISORDERS AND ADMINISTRATION SITE CONDITIONS,,MILD,N,,PROBABLE,NOT RECOVERED/NOT RESOLVED,N,N,N,N,N,N,N,TREATMENT,2014-01-16,2014-01-03,,15.0,2.0,
CDISCPILOT01,AE,01-701-1015,3.0,E06,DIARRHOEA,DIARRHEA,,DIARRHOEA,,HLT_0148,,HLGT_0588,,GASTROINTESTINAL DISORDERS,,GASTROINTESTINAL DISORDERS,,MILD,N,,REMOTE,RECOVERED/RESOLVED,N,N,N,N,N,N,N,TREATMENT,2014-01-16,2014-01-09,2014-01-11,15.0,8.0,10.0
CDISCPILOT01,AE,01-701-1023,3.0,E10,ATRIOVENTRICULAR BLOCK SECOND DEGREE,AV BLOCK SECOND DEGREE,,ATRIOVENTRICULAR BLOCK SECOND DEGREE,,HLT_0415,,HLGT_0086,,CARDIAC DISORDERS,,CARDIAC DISORDERS,,MILD,N,,POSSIBLE,NOT RECOVERED/NOT RESOLVED,N,N,N,N,N,N,N,TREATMENT,2012-08-27,2012-08-26,,23.0,22.0,
CDISCPILOT01,AE,01-701-1023,2.0,E09,ERYTHEMA,LOCALIZED ERYTHEMA,,ERYTHEMA,,HLT_0284,,HLGT_0192,,SKIN AND SUBCUTANEOUS TISSUE DISORDERS,,SKIN AND SUBCUTANEOUS TISSUE DISORDERS,,MODERATE,N,,PROBABLE,NOT RECOVERED/NOT RESOLVED,N,N,N,N,N,N,N,TREATMENT,2012-08-27,2012-08-07,,23.0,3.0,
CDISCPILOT01,AE,01-701-1023,4.0,E08,ERYTHEMA,ERYTHEMA,,ERYTHEMA,,HLT_0284,,HLGT_0192,,SKIN AND SUBCUTANEOUS TISSUE DISORDERS,,SKIN AND SUBCUTANEOUS TISSUE DISORDERS,,MILD,N,,POSSIBLE,RECOVERED/RESOLVED,N,N,N,N,N,N,N,TREATMENT,2012-09-02,2012-08-07,2012-08-30,29.0,3.0,26.0
CDISCPILOT01,AE,01-701-1028,1.0,E04,APPLICATION SITE ERYTHEMA,APPLICATION SITE ERYTHEMA,,APPLICATION SITE ERYTHEMA,,HLT_0617,,HLGT_0152,,GENERAL DISORDERS AND ADMINISTRATION SITE CONDITIONS,,GENERAL DISORDERS AND ADMINISTRATION SITE CONDITIONS,,MILD,N,,POSSIBLE,NOT RECOVERED/NOT RESOLVED,N,N,N,N,N,N,N,TREATMENT,2013-08-01,2013-07-21,,14.0,3.0,
CDISCPILOT01,AE,01-701-1028,2.0,E05,APPLICATION SITE PRURITUS,APPLICATION SITE ITCHING,,APPLICATION SITE PRURITUS,,HLT_0317,,HLGT_0338,,GENERAL DISORDERS AND ADMINISTRATION SITE CONDITIONS,,GENERAL DISORDERS AND ADMINISTRATION SITE CONDITIONS,,MILD,N,,PROBABLE,NOT RECOVERED/NOT RESOLVED,N,N,N,N,N,N,N,TREATMENT,2013-08-14,2013-08-08,,27.0,21.0,
CDISCPILOT01,AE,01-701-1034,1.0,E08,APPLICATION SITE PRURITUS,APPLICATION SITE ITCHING,,APPLICATION SITE PRURITUS,,HLT_0317,,HLGT_0338,,GENERAL DISORDERS AND ADMINISTRATION SITE CONDITIONS,,GENERAL DISORDERS AND ADMINISTRATION SITE CONDITIONS,,MILD,N,,PROBABLE,NOT RECOVERED/NOT RESOLVED,N,N,N,N,N,N,N,TREATMENT,2014-09-25,2014-08-27,,87.0,58.0,
CDISCPILOT01,AE,01-701-1034,2.0,E07,FATIGUE,FATIGUE,,FATIGUE,,HLT_0043,,HLGT_0181,,GENERAL DISORDERS AND ADMINISTRATION SITE CONDITIONS,,GENERAL DISORDERS AND ADMINISTRATION SITE CONDITIONS,,MILD,N,,POSSIBLE,NOT RECOVERED/NOT RESOLVED,N,N,N,N,N,N,N,TREATMENT,2014-11-18,2014-11-02,,141.0,125.0,
CDISCPILOT01,AE,01-701-1047,4.0,E09,BUNDLE BRANCH BLOCK LEFT,LEFT BUNDLE BRANCH BLOCK,,BUNDLE BRANCH BLOCK LEFT,,HLT_0281,,HLGT_0721,,CARDIAC DISORDERS,,CARDIAC DISORDERS,,MILD,N,,NONE,NOT RECOVERED/NOT RESOLVED,N,N,N,N,N,N,N,TREATMENT,2013-03-10,2013-03-10,,27.0,27.0,
CDISCPILOT01,AE,01-701-1047,2.0,E06,HIATUS HERNIA,HERNIA HIATAL,,HIATUS HERNIA,,HLT_0159,,HLGT_0109,,GASTROINTESTINAL DISORDERS,,GASTROINTESTINAL DISORDERS,,MODERATE,N,,NONE,RECOVERED/RESOLVED,N,N,N,N,N,N,N,TREATMENT,2013-02-25,2013-02-12,2013-02-12,14.0,1.0,1.0
CDISCPILOT01,AE,01-701-1047,3.0,E08,UPPER RESPIRATORY TRACT INFECTION,UPPER RESPIRATORY INFECTION,,UPPER RESPIRATORY TRACT INFECTION,,HLT_0520,,HLGT_0489,,INFECTIONS AND INFESTATIONS,,INFECTIONS AND INFESTATIONS,,MILD,N,,NONE,NOT RECOVERED/NOT RESOLVED,N,N,N,N,N,N,N,TREATMENT,2013-03-10,2013-03-06,,27.0,23.0,
CDISCPILOT01,AE,01-701-1097,4.0,E06,APPLICATION SITE PRURITUS,APPLICATION SITE ITCHING,,APPLICATION SITE PRURITUS,,HLT_0317,,HLGT_0338,,GENERAL DISORDERS AND ADMINISTRATION SITE CONDITIONS,,GENERAL DISORDERS AND ADMINISTRATION SITE CONDITIONS,,MILD,N,,POSSIBLE,NOT RECOVERED/NOT RESOLVED,N,N,N,N,N,N,N,TREATMENT,2014-02-26,2014-02-21,,57.0,52.0,
CDISCPILOT01,AE,01-701-1097,10.0,E06,APPLICATION SITE PRURITUS,APPLICATION SITE ITCHING,,APPLICATION SITE PRURITUS,,HLT_0317,,HLGT_0338,,GENERAL DISORDERS AND ADMINISTRATION SITE CONDITIONS,,GENERAL DISORDERS AND ADMINISTRATION SITE CONDITIONS,,MODERATE,N,,POSSIBLE,NOT RECOVERED/NOT RESOLVED,N,N,N,N,N,N,N,TREATMENT,2014-05-21,2014-02-21,,141.0,52.0,
CDISCPILOT01,AE,01-701-1097,3.0,E07,APPLICATION SITE VESICLES,APPLICATION SITE BLISTER,,APPLICATION SITE VESICLES,,HLT_0180,,HLGT_0576,,GENERAL DISORDERS AND ADMINISTRATION SITE CONDITIONS,,GENERAL DISORDERS AND ADMINISTRATION SITE CONDITIONS,,MILD,N,,PROBABLE,RECOVERED/RESOLVED,N,N,N,N,N,N,N,TREATMENT,2014-02-26,2014-02-20,2014-02-22,57.0,51.0,53.0
CDISCPILOT01,AE,01-701-1097,1.0,E04,ERYTHEMA,ERYTHEMA,,ERYTHEMA,,HLT_0284,,HLGT_0192,,SKIN AND SUBCUTANEOUS TISSUE DISORDERS,,SKIN AND SUBCUTANEOUS TISSUE DISORDERS,,MILD,N,,POSSIBLE,NOT RECOVERED/NOT RESOLVED,N,N,N,N,N,N,N,TREATMENT,2014-01-15,2014-01-03,,15.0,3.0,
CDISCPILOT01,AE,01-701-1097,9.0,E11,NASAL CONGESTION,NASAL CONGESTION,,NASAL CONGESTION,,HLT_0118,,HLGT_0549,,"RESPIRATORY, THORACIC AND MEDIASTINAL DISORDERS",,"RESPIRATORY, THORACIC AND MEDIASTINAL DISORDERS",,MILD,N,,NONE,RECOVERED/RESOLVED,N,N,N,N,N,N,N,TREATMENT,2014-04-23,2014-04-19,2014-04-22,113.0,109.0,112.0
CDISCPILOT01,AE,01-701-1097,8.0,E10,PHARYNGOLARYNGEAL PAIN,SORE THROAT,,PHARYNGOLARYNGEAL PAIN,,HLT_0130,,HLGT_0402,,"RESPIRATORY, THORACIC AND MEDIASTINAL DISORDERS",,"RESPIRATORY, THORACIC AND MEDIASTINAL DISORDERS",,MILD,N,,NONE,RECOVERED/RESOLVED,N,N,N,N,N,N,N,TREATMENT,2014-04-23,2014-04-19,2014-04-22,113.0,109.0,112.0
CDISCPILOT01,AE,01-701-1097,2.0,E05,PRURITUS GENERALISED,GENERALIZED PRURITUS,,PRURITUS GENERALISED,,HLT_0123,,HLGT_0689,,SKIN AND SUBCUTANEOUS TISSUE DISORDERS,,SKIN AND SUBCUTANEOUS TISSUE DISORDERS,,MODERATE,N,,POSSIBLE,RECOVERED/RESOLVED,N,N,N,N,N,N,N,TREATMENT,2014-02-26,2014-02-20,2014-02-20,57.0,51.0,51.0
CDISCPILOT01,AE,01-701-1097,5.0,E08,PRURITUS GENERALISED,GENERALIZED PRURITUS,,PRURITUS GENERALISED,,HLT_0123,,HLGT_0689,,SKIN AND SUBCUTANEOUS TISSUE DISORDERS,,SKIN AND SUBCUTANEOUS TISSUE DISORDERS,,MODERATE,N,,POSSIBLE,RECOVERED/RESOLVED,N,N,N,N,N,N,N,TREATMENT,2014-03-26,2014-03-21,2014-03-21,85.0,80.0,80.0
CDISCPILOT01,AE,01-701-1097,6.0,E12,PRURITUS GENERALISED,GENERALIZED PRURITUS,,PRURITUS GENERALISED,,HLT_0123,,HLGT_0689,,SKIN AND SUBCUTANEOUS TISSUE DISORDERS,,SKIN AND SUBCUTANEOUS TISSUE DISORDERS,,MODERATE,N,,POSSIBLE,RECOVERED/RESOLVED,N,N,N,N,N,N,N,TREATMENT,2014-04-23,2014-03-31,2014-03-31,113.0,90.0,90.0
CDISCPILOT01,AE,01-701-1097,7.0,E09,PRURITUS GENERALISED,GENERALIZED PRURITUS,,PRURITUS GENERALISED,,HLT_0123,,HLGT_0689,,SKIN AND SUBCUTANEOUS TISSUE DISORDERS,,SKIN AND SUBCUTANEOUS TISSUE DISORDERS,,MODERATE,N,,POSSIBLE,RECOVERED/RESOLVED,N,N,N,N,N,N,N,TREATMENT,2014-04-23,2014-04-19,2014-04-20,113.0,109.0,110.0
CDISCPILOT01,AE,01-701-1111,7.0,E16,ARTHRALGIA,GENERALIZED JOINT PAIN,,ARTHRALGIA,,HLT_0375,,HLGT_0610,,MUSCULOSKELETAL AND CONNECTIVE TISSUE DISORDERS,,MUSCULOSKELETAL AND CONNECTIVE TISSUE DISORDERS,,MODERATE,N,,NONE,NOT RECOVERED/NOT RESOLVED,N,N,N,N,N,N,N,TREATMENT,2012-09-17,2012-09-13,,11.0,7.0,
CDISCPILOT01,AE,01-701-1111,8.0,E17,CELLULITIS,CELLULITIS OF LEG,,CELLULITIS,,HLT_0613,,HLGT_0066,,INFECTIONS AND INFESTATIONS,,INFECTIONS AND INFESTATIONS,,MODERATE,N,,NONE,NOT RECOVERED/NOT RESOLVED,N,N,N,N,N,N,N,TREATMENT,2012-09-17,2012-09-13,,11.0,7.0,
CDISCPILOT01,AE,01-701-1111,4.0,E14,ERYTHEMA,ERYTHEMA,,ERYTHEMA,,HLT_0284,,HLGT_0192,,SKIN AND SUBCUTANEOUS TISSUE DISORDERS,,SKIN AND SUBCUTANEOUS TISSUE DISORDERS,,MILD,N,,NONE,RECOVERED/RESOLVED,N,N,N,N,N,N,N,SCREENING,2012-09-17,2012-09-02,2012-09-07,11.0,-5.0,1.0
CDISCPILOT01,AE,01-701-1111,3.0,E06,LOCALISED INFECTION,LOCALIZED INFECTION,,LOCALISED INFECTION,,HLT_0435,,HLGT_0557,,INFECTIONS AND INFESTATIONS,,INFECTIONS AND INFESTATIONS,,MODERATE,N,,NONE,NOT RECOVERED/NOT RESOLVED,N,N,N,N,N,N,N,SCREENING,2012-09-17,2012-07-08,,11.0,-61.0,
CDISCPILOT01,AE,01-701-1111,6.0,E18,MICTURITION URGENCY,URINARY URGENCY,,MICTURITION URGENCY,,HLT_0294,,HLGT_0483,,RENAL AND URINARY DISORDERS,,RENAL AND URINARY DISORDERS,,MILD,N,,NONE,NOT RECOVERED/NOT RESOLVED,N,N,N,N,N,N,N,TREATMENT,2012-09-17,2012-09-07,,11.0,1.0,
CDISCPILOT01,AE,01-701-1111,5.0,E15,PRURITUS,ITCHING,,PRURITUS,,HLT_0778,,HLGT_0695,,SKIN AND SUBCUTANEOUS TISSUE DISORDERS,,SKIN AND SUBCUTANEOUS TISSUE DISORDERS,,MILD,N,,NONE,RECOVERED/RESOLVED,N,N,N,N,N,N,N,SCREENING,2012-09-17,2012-09-02,2012-09-07,11.0,-5.0,1.0
CDISCPILOT01,AE,01-701-1115,9.0,E14,APPLICATION SITE DERMATITIS,APPLICATION SITE RASH,,APPLICATION SITE DERMATITIS,,HLT_0343,,HLGT_0241,,GENERAL DISORDERS AND ADMINISTRATION SITE CONDITIONS,,GENERAL DISORDERS AND ADMINISTRATION SITE CONDITIONS,,MODERATE,N,,PROBABLE,NOT RECOVERED/NOT RESOLVED,N,N,N,N,N,N,N,TREATMENT,2013-01-23,2013-01-19,,55.0,51.0,
CDISCPILOT01,AE,01-701-1115,1.0,E09,APPLICATION SITE ERYTHEMA,APPLICATION SITE REDNESS,,APPLICATION SITE ERYTHEMA,,HLT_0617,,HLGT_0152,,GENERAL DISORDERS AND ADMINISTRATION SITE CONDITIONS,,GENERAL DISORDERS AND ADMINISTRATION SITE CONDITIONS,,MILD,N,,PROBABLE,NOT RECOVERED/NOT RESOLVED,N,N,N,N,N,N,N,TREATMENT,2012-12-13,2012-12-02,,14.0,3.0,
CDISCPILOT01,AE,01-701-1115,5.0,E09,APPLICATION SITE ERYTHEMA,APPLICATION SITE REDNESS,,APPLICATION SITE ERYTHEMA,,HLT_0617,,HLGT_0152,,GENERAL DISORDERS AND ADMINISTRATION SITE CONDITIONS,,GENERAL DISORDERS AND ADMINISTRATION SITE CONDITIONS,,MODERATE,N,,PROBABLE,NOT RECOVERED/NOT RESOLVED,N,N,N,N,N,N,N,TREATMENT,2013-01-23,2012-12-02,,55.0,3.0,
CDISCPILOT01,AE,01-701-1115,4.0,E10,APPLICATION SITE IRRITATION,APPLICATION SITE BURNING,,APPLICATION SITE IRRITATION,,HLT_0061,,HLGT_0346,,GENERAL DISORDERS AND ADMINISTRATION SITE CONDITIONS,,GENERAL DISORDERS AND ADMINISTRATION SITE CONDITIONS,,MILD,N,,POSSIBLE,RECOVERED/RESOLVED,N,N,N,N,N,N,N,TREATMENT,2012-12-28,2012-12-26,2012-12-26,29.0,27.0,27.0
CDISCPILOT01,AE,01-701-1115,8.0,E12,APPLICATION SITE IRRITATION,APPLICATION SITE BURNING,,APPLICATION SITE IRRITATION,,HLT_0061,,HLGT_0346,,GENERAL DISORDERS AND ADMINISTRATION SITE CONDITIONS,,GENERAL DISORDERS AND ADMINISTRATION SITE CONDITIONS,,MODERATE,N,,PROBABLE,NOT RECOVERED/NOT RESOLVED,N,N,N,N,N,N,N,TREATMENT,2013-01-23,2013-01-19,,55.0,51.0,
CDISCPILOT01,AE,01-701-1115,2.0,E11,APPLICATION SITE PRURITUS,APPLICATION SITE ITCHING,,APPLICATION SITE PRURITUS,,HLT_0317,,HLGT_0338,,GENERAL DISORDERS AND ADMINISTRATION SITE CONDITIONS,,GENERAL DISORDERS AND ADMINISTRATION SITE CONDITIONS,,MILD,N,,PROBABLE,NOT RECOVERED/NOT RESOLVED,N,N,N,N,N,N,N,TREATMENT,2012-12-13,2012-12-02,,14.0,3.0,
CDISCPILOT01,AE,01-701-1115,6.0,E11,APPLICATION SITE PRURITUS,APPLICATION SITE ITCHING,,APPLICATION SITE PRURITUS,,HLT_0317,,HLGT_0338,,GENERAL DISORDERS AND ADMINISTRATION SITE CONDITIONS,,GENERAL DISORDERS AND ADMINISTRATION SITE CONDITIONS,,MODERATE,N,,PROBABLE,NOT RECOVERED/NOT RESOLVED,N,N,N,N,N,N,N,TREATMENT,2013-01-23,2012-12-02,,55.0,3.0,
CDISCPILOT01,AE,01-701-1115,7.0,E13,FATIGUE,FATIGUE,,FATIGUE,,HLT_0043,,HLGT_0181,,GENERAL DISORDERS AND ADMINISTRATION SITE CONDITIONS,,GENERAL DISORDERS AND ADMINISTRATION SITE CONDITIONS,,MODERATE,N,,REMOTE,NOT RECOVERED/NOT RESOLVED,N,N,N,N,N,N,N,TREATMENT,2013-01-23,2013-01-14,,55.0,46.0,
CDISCPILOT01,AE,01-701-1118,1.0,E06,COUGH,COUGH,,COUGH,,HLT_0701,,HLGT_0280,,"RESPIRATORY, THORACIC AND MEDIASTINAL DISORDERS",,"RESPIRATORY, THORACIC AND MEDIASTINAL DISORDERS",,MILD,N,,NONE,NOT RECOVERED/NOT RESOLVED,N,N,N,N,N,N,N,SCREENING,2014-03-10,2003,,-2.0,,
CDISCPILOT01,AE,01-701-1130,5.0,E09,EYE ALLERGY,EYE ALLERGY,,EYE ALLERGY,,HLT_0256,,HLGT_0071,,EYE DISORDERS,,EYE DISORDERS,,MILD,N,,NONE,RECOVERED/RESOLVED,N,N,N,N,N,N,N,TREATMENT,2014-05-16,2014-05-09,2014-05-09,91.0,84.0,84.0
CDISCPILOT01,AE,01-701-1130,6.0,E10,EYE PRURITUS,EYE ITCHING,,EYE PRURITUS,,HLT_0523,,HLGT_0240,,EYE DISORDERS,,EYE DISORDERS,,MILD,N,,REMOTE,NOT RECOVERED/NOT RESOLVED,N,N,N,N,N,N,N,TREATMENT,2014-06-07,2014-05-22,,113.0,97.0,
CDISCPILOT01,AE,01-701-1130,4.0,E08,EYE SWELLING,EYES SWOLLEN,,EYE SWELLING,,HLT_0008,,HLGT_0466,,EYE DISORDERS,,EYE DISORDERS,,MILD,N,,NONE,RECOVERED/RESOLVED,N,N,N,N,N,N,N,TREATMENT,2014-05-16,2014-05-09,2014-05-09,91.0,84.0,84.0
CDISCPILOT01,AE,01-701-1130,8.0,E12,NASAL CONGESTION,NASAL CONGESTION,,NASAL CONGESTION,,HLT_0118,,HLGT_0549,,"RESPIRATORY, THORACIC AND MEDIASTINAL DISORDERS",,"RESPIRATORY, THORACIC AND MEDIASTINAL DISORDERS",,MILD,N,,REMOTE,NOT RECOVERED/NOT RESOLVED,N,N,N,N,N,N,N,TREATMENT,2014-06-07,2014-05-22,,113.0,97.0,
CDISCPILOT01,AE,01-701-1130,7.0,E11,PRURITUS,ITCHING BOTH HANDS,,PRURITUS,,HLT_0778,,HLGT_0695,,SKIN AND SUBCUTANEOUS TISSUE DISORDERS,,SKIN AND SUBCUTANEOUS TISSUE DISORDERS,,MILD,N,,REMOTE,NOT RECOVERED/NOT RESOLVED,N,N,N,N,N,N,N,TREATMENT,2014-06-07,2014-05-22,,113.0,97.0,
CDISCPILOT01,AE,01-701-1130,2.0,E07,PYREXIA,FEVER,,PYREXIA,,HLT_0310,,HLGT_0652,,GENERAL DISORDERS AND ADMINISTRATION SITE CONDITIONS,,GENERAL DISORDERS AND ADMINISTRATION SITE CONDITIONS,,MILD,N,,NONE,RECOVERED/RESOLVED,N,N,N,N,N,N,N,TREATMENT,2014-03-15,2014-03-09,2014-03-09,29.0,23.0,23.0
CDISCPILOT01,AE,01-701-1130,3.0,E06,URINARY TRACT INFECTION,URINARY TRACT INFECTION,,URINARY TRACT INFECTION,,HLT_0161,,HLGT_0093,,INFECTIONS AND INFESTATIONS,,INFECTIONS AND INFESTATIONS,,MILD,N,,NONE,RECOVERED/RESOLVED,N,N,N,N,N,N,N,TREATMENT,2014-03-17,2014-03-09,2014-03-16,31.0,23.0,30.0
CDISCPILOT01,AE,01-701-1133,1.0,E04,APPLICATION SITE ERYTHEMA,APPLICATION SITE REDNESS,,APPLICATION SITE ERYTHEMA,,HLT_0617,,HLGT_0152,,GENERAL DISORDERS AND ADMINISTRATION SITE CONDITIONS,,GENERAL DISORDERS AND ADMINISTRATION SITE CONDITIONS,,MILD,N,,PROBABLE,NOT RECOVERED/NOT RESOLVED,N,N,N,N,N,N,N,TREATMENT,2013-01-22,2012-12-27,,87.0,61.0,
CDISCPILOT01,AE,01-701-1133,3.0,E04,APPLICATION SITE ERYTHEMA,APPLICATION SITE REDNESS,,APPLICATION SITE ERYTHEMA,,HLT_0617,,HLGT_0152,,GENERAL DISORDERS AND ADMINISTRATION SITE CONDITIONS,,GENERAL DISORDERS AND ADMINISTRATION SITE CONDITIONS,,MODERATE,N,,PROBABLE,NOT RECOVERED/NOT RESOLVED,N,N,N,N,N,N,N,TREATMENT,2013-02-18,2012-12-27,,114.0,61.0,
CDISCPILOT01,AE,01-701-1133,2.0,E05,APPLICATION SITE PRURITUS,APPLICATION SITE ITCHING,,APPLICATION SITE PRURITUS,,HLT_0317,,HLGT_0338,,GENERAL DISORDERS AND ADMINISTRATION SITE CONDITIONS,,GENERAL DISORDERS AND ADMINISTRATION SITE CONDITIONS,,MILD,N,,PROBABLE,NOT RECOVERED/NOT RESOLVED,N,N,N,N,N,N,N,TREATMENT,2013-01-22,2012-12-27,,87.0,61.0,
CDISCPILOT01,AE,01-701-1133,4.0,E05,APPLICATION SITE PRURITUS,APPLICATION SITE ITCHING,,APPLICATION SITE PRURITUS,,HLT_0317,,HLGT_0338,,GENERAL DISORDERS AND ADMINISTRATION SITE CONDITIONS,,GENERAL DISORDERS AND ADMINISTRATION SITE CONDITIONS,,MODERATE,N,,PROBABLE,NOT RECOVERED/NOT RESOLVED,N,N,N,N,N,N,N,TREATMENT,2013-02-18,2012-12-27,,114.0,61.0,
CDISCPILOT01,AE,01-701-1146,5.0,E12,APPLICATION SITE ERYTHEMA,APPLICATION SITE ERYTHEMA,,APPLICATION SITE ERYTHEMA,,HLT_0617,,HLGT_0152,,GENERAL DISORDERS AND ADMINISTRATION SITE CONDITIONS,,GENERAL DISORDERS AND ADMINISTRATION SITE CONDITIONS,,MILD,N,,PROBABLE,NOT RECOVERED/NOT RESOLVED,N,N,N,N,N,N,N,TREATMENT,2013-06-16,2013-06-10,,28.0,22.0,
CDISCPILOT01,AE,01-701-1146,7.0,E12,APPLICATION SITE ERYTHEMA,APPLICATION SITE ERYTHEMA,,APPLICATION SITE ERYTHEMA,,HLT_0617,,HLGT_0152,,GENERAL DISORDERS AND ADMINISTRATION SITE CONDITIONS,,GENERAL DISORDERS AND ADMINISTRATION SITE CONDITIONS,,MODERATE,N,,PROBABLE,NOT RECOVERED/NOT RESOLVED,N,N,N,N,N,N,N,TREATMENT,2013-06-30,2013-06-10,,42.0,22.0,
CDISCPILOT01,AE,01-701-1146,3.0,E10,APPLICATION SITE IRRITATION,APPLICATION SITE IRRITATION,,APPLICATION SITE IRRITATION,,HLT_0061,,HLGT_0346,,GENERAL DISORDERS AND ADMINISTRATION SITE CONDITIONS,,GENERAL DISORDERS AND ADMINISTRATION SITE CONDITIONS,,MILD,N,,PROBABLE,RECOVERED/RESOLVED,N,N,N,N,N,N,N,TREATMENT,2013-06-03,2013-06-01,2013-06-02,15.0,13.0,14.0
CDISCPILOT01,AE,01-701-1146,11.0,E16,APPLICATION SITE IRRITATION,APPLICATION SITE BURNING,,APPLICATION SITE IRRITATION,,HLT_0061,,HLGT_0346,,GENERAL DISORDERS AND ADMINISTRATION SITE CONDITIONS,,GENERAL DISORDERS AND ADMINISTRATION SITE CONDITIONS,,MODERATE,N,,PROBABLE,NOT RECOVERED/NOT RESOLVED,N,N,N,N,N,N,N,TREATMENT,2013-06-30,2013-06-26,,42.0,38.0,
CDISCPILOT01,AE,01-701-1146,9.0,E14,APPLICATION SITE PAIN,APPLICATION SITE PAIN,,APPLICATION SITE PAIN,,HLT_0342,,HLGT_0085,,GENERAL DISORDERS AND ADMINISTRATION SITE CONDITIONS,,GENERAL DISORDERS AND ADMINISTRATION SITE CONDITIONS,,MODERATE,N,,PROBABLE,NOT RECOVERED/NOT RESOLVED,N,N,N,N,N,N,N,TREATMENT,2013-06-30,2013-06-22,,42.0,34.0,
CDISCPILOT01,AE,01-701-1146,6.0,E13,APPLICATION SITE PRURITUS,APPLICATION SITE ITCHING,,APPLICATION SITE PRURITUS,,HLT_0317,,HLGT_0338,,GENERAL DISORDERS AND ADMINISTRATION SITE CONDITIONS,,GENERAL DISORDERS AND ADMINISTRATION SITE CONDITIONS,,MILD,N,,PROBABLE,NOT RECOVERED/NOT RESOLVED,N,N,N,N,N,N,N,TREATMENT,2013-06-16,2013-06-10,,28.0,22.0,
CDISCPILOT01,AE,01-701-1146,8.0,E13,APPLICATION SITE PRURITUS,APPLICATION SITE ITCHING,,APPLICATION SITE PRURITUS,,HLT_0317,,HLGT_0338,,GENERAL DISORDERS AND ADMINISTRATION SITE CONDITIONS,,GENERAL DISORDERS AND ADMINISTRATION SITE CONDITIONS,,MODERATE,N,,PROBABLE,NOT RECOVERED/NOT RESOLVED,N,N,N,N,N,N,N,TREATMENT,2013-06-30,2013-06-10,,42.0,22.0,
CDISCPILOT01,AE,01-701-1146,10.0,E15,APPLICATION SITE VESICLES,APPLICATION SITE VESICLES,,APPLICATION SITE VESICLES,,HLT_0180,,HLGT_0576,,GENERAL DISORDERS AND ADMINISTRATION SITE CONDITIONS,,GENERAL DISORDERS AND ADMINISTRATION SITE CONDITIONS,,MODERATE,N,,PROBABLE,NOT RECOVERED/NOT RESOLVED,N,N,N,N,N,N,N,TREATMENT,2013-06-30,2013-06-26,,42.0,38.0,
CDISCPILOT01,AE,01-701-1146,4.0,E11,FATIGUE,FATIGUE,,FATIGUE,,HLT_0043,,HLGT_0181,,GENERAL DISORDERS AND ADMINISTRATION SITE CONDITIONS,,GENERAL DISORDERS AND ADMINISTRATION SITE CONDITIONS,,MILD,N,,POSSIBLE,NOT RECOVERED/NOT RESOLVED,N,N,N,N,N,N,N,TREATMENT,2013-06-03,2013-06-03,,15.0,15.0,
CDISCPILOT01,AE,01-701-1146,2.0,E09,RASH,RASH,,RASH,,HLT_0762,,HLGT_0198,,SKIN AND SUBCUTANEOUS TISSUE DISORDERS,,SKIN AND SUBCUTANEOUS TISSUE DISORDERS,,MILD,N,,NONE,RECOVERED/RESOLVED,N,N,N,N,N,N,N,SCREENING,2013-06-03,2013-05-16,2013-06-02,15.0,-4.0,14.0
CDISCPILOT01,AE,01-701-1148,10.0,E27,ACTINIC KERATOSIS,ACTINIC KERATOSIS,,ACTINIC KERATOSIS,,HLT_0609,,HLGT_0490,,SKIN AND SUBCUTANEOUS TISSUE DISORDERS,,SKIN AND SUBCUTANEOUS TISSUE DISORDERS,,MILD,N,,NONE,NOT RECOVERED/NOT RESOLVED,N,N,N,N,N,N,N,TREATMENT,2014-02-20,2014-02-12,,182.0,174.0,
CDISCPILOT01,AE,01-701-1148,1.0,E20,APPLICATION SITE ERYTHEMA,APPLICATION SITE REDNESS,,APPLICATION SITE ERYTHEMA,,HLT_0617,,HLGT_0152,,GENERAL DISORDERS AND ADMINISTRATION SITE CONDITIONS,,GENERAL DISORDERS AND ADMINISTRATION SITE CONDITIONS,,MILD,N,,PROBABLE,NOT RECOVERED/NOT RESOLVED,N,N,N,N,N,N,N,TREATMENT,2013-09-05,2013-08-25,,14.0,3.0,
CDISCPILOT01,AE,01-701-1148,2.0,E21,APPLICATION SITE PRURITUS,APPLICATION SITE ITCHING,,APPLICATION SITE PRURITUS,,HLT_0317,,HLGT_0338,,GENERAL DISORDERS AND ADMINISTRATION SITE CONDITIONS,,GENERAL DISORDERS AND ADMINISTRATION SITE CONDITIONS,,MILD,N,,PROBABLE,NOT RECOVERED/NOT RESOLVED,N,N,N,N,N,N,N,TREATMENT,2013-09-05,2013-08-25,,14.0,3.0,
CDISCPILOT01,AE,01-701-1148,6.0,E25,CALCULUS URETHRAL,URETHRAL CALCULUS,,CALCULUS URETHRAL,,HLT_0550,,HLGT_0414,,RENAL AND URINARY DISORDERS,,RENAL AND URINARY DISORDERS,,MODERATE,N,,NONE,RECOVERED/RESOLVED,N,N,N,N,N,N,N,TREATMENT,2014-01-10,2013-12-17,2013-12-17,141.0,117.0,117.0
CDISCPILOT01,AE,01-701-1148,9.0,E26,DEPRESSED MOOD,DEPRESSED MOOD,,DEPRESSED MOOD,,HLT_0784,,HLGT_0122,,PSYCHIATRIC DISORDERS,,PSYCHIATRIC DISORDERS,,MODERATE,N,,NONE,NOT RECOVERED/NOT RESOLVED,N,N,N,N,N,N,N,SCREENING,2014-02-08,2013-07-29,,170.0,-25.0,
CDISCPILOT01,AE,01-701-1148,8.0,E03,DYSPEPSIA,INDIGESTION,,DYSPEPSIA,,HLT_0244,,HLGT_0716,,GASTROINTESTINAL DISORDERS,,GASTROINTESTINAL DISORDERS,,MODERATE,N,,NONE,NOT RECOVERED/NOT RESOLVED,N,N,N,N,N,N,N,SCREENING,2014-02-08,2012-02,,170.0,,
CDISCPILOT01,AE,01-701-1148,7.0,E28,EPISTAXIS,NOSE BLEED,,EPISTAXIS,,HLT_0386,,HLGT_0577,,"RESPIRATORY, THORACIC AND MEDIASTINAL DISORDERS",,"RESPIRATORY, THORACIC AND MEDIASTINAL DISORDERS",,MILD,N,,NONE,RECOVERED/RESOLVED,N,N,N,N,N,N,N,TREATMENT,2014-01-10,2014-01-03,2014-01-03,141.0,134.0,134.0
CDISCPILOT01,AE,01-701-1148,5.0,E24,FLANK PAIN,FLANK PAIN,,FLANK PAIN,,HLT_0484,,HLGT_0543,,MUSCULOSKELETAL AND CONNECTIVE TISSUE DISORDERS,,MUSCULOSKELETAL AND CONNECTIVE TISSUE DISORDERS,,MODERATE,N,,NONE,RECOVERED/RESOLVED,N,N,N,N,N,N,N,TREATMENT,2014-01-10,2013-12-15,2013-12-17,141.0,115.0,117.0
CDISCPILOT01,AE,01-701-1148,4.0,E23,LOWER RESPIRATORY TRACT INFECTION,CHEST COLD,,LOWER RESPIRATORY TRACT INFECTION,,HLT_0052,,HLGT_0217,,INFECTIONS AND INFESTATIONS,,INFECTIONS AND INFESTATIONS,,MODERATE,N,,NONE,RECOVERED/RESOLVED,N,N,N,N,N,N,N,TREATMENT,2013-11-17,2013-10-12,2013-11-10,87.0,51.0,80.0
CDISCPILOT01,AE,01-701-1153,2.0,E06,INCREASED APPETITE,INCREASED APPETITE,,INCREASED APPETITE,,HLT_0566,,HLGT_0769,,METABOLISM AND NUTRITION DISORDERS,,METABOLISM AND NUTRITION DISORDERS,,MILD,N,,POSSIBLE,RECOVERED/RESOLVED,N,N,N,N,N,N,N,TREATMENT,2013-11-18,2013-10-13,2013-11-06,57.0,21.0,45.0
CDISCPILOT01,AE,01-701-1180,9.0,E07,APPLICATION SITE ERYTHEMA,APPLICATION SITE ERYTHEMA,,APPLICATION SITE ERYTHEMA,,HLT_0617,,HLGT_0152,,GENERAL DISORDERS AND ADMINISTRATION SITE CONDITIONS,,GENERAL DISORDERS AND ADMINISTRATION SITE CONDITIONS,,MODERATE,N,,POSSIBLE,NOT RECOVERED/NOT RESOLVED,N,N,N,N,N,N,N,TREATMENT,2013-03-23,2013-03-19,,40.0,36.0,
CDISCPILOT01,AE,01-701-1180,8.0,E06,APPLICATION SITE PRURITUS,APPLICATION SITE ITCHING,,APPLICATION SITE PRURITUS,,HLT_0317,,HLGT_0338,,GENERAL DISORDERS AND ADMINISTRATION SITE CONDITIONS,,GENERAL DISORDERS AND ADMINISTRATION SITE CONDITIONS,,MODERATE,N,,POSSIBLE,NOT RECOVERED/NOT RESOLVED,N,N,N,N,N,N,N,TREATMENT,2013-03-23,2013-03-19,,40.0,36.0,
CDISCPILOT01,AE,01-701-1180,7.0,E05,APPLICATION SITE VESICLES,APPLICATION SITE BLISTER,,APPLICATION SITE VESICLES,,HLT_0180,,HLGT_0576,,GENERAL DISORDERS AND ADMINISTRATION SITE CONDITIONS,,GENERAL DISORDERS AND ADMINISTRATION SITE CONDITIONS,,MODERATE,N,,POSSIBLE,NOT RECOVERED/NOT RESOLVED,N,N,N,N,N,N,N,TREATMENT,2013-03-23,2013-03-19,,40.0,36.0,
CDISCPILOT01,AE,01-701-1180,4.0,E04,HEADACHE,HEADACHE,,HEADACHE,,HLT_0064,,HLGT_0344,,NERVOUS SYSTEM DISORDERS,,NERVOUS SYSTEM DISORDERS,,MODERATE,N,,NONE,NOT RECOVERED/NOT RESOLVED,N,N,N,N,N,N,N,SCREENING,2013-03-11,2002,,28.0,,
CDISCPILOT01,AE,01-701-1180,6.0,E02,MICTURITION URGENCY,URINARY URGENCY,,MICTURITION URGENCY,,HLT_0294,,HLGT_0483,,RENAL AND URINARY DISORDERS,,RENAL AND URINARY DISORDERS,,MILD,N,,POSSIBLE,RECOVERED/RESOLVED,N,N,N,N,N,N,N,TREATMENT,2013-03-23,2013-02-15,2013-03-19,40.0,4.0,36.0
CDISCPILOT01,AE,01-701-1180,5.0,E03,NASOPHARYNGITIS,COLD,,NASOPHARYNGITIS,,HLT_0036,,HLGT_0709,,INFECTIONS AND INFESTATIONS,,INFECTIONS AND INFESTATIONS,,MILD,N,,NONE,RECOVERED/RESOLVED,N,N,N,N,N,N,N,TREATMENT,2013-03-11,2013-03-06,2013-03-07,28.0,23.0,24.0
CDISCPILOT01,AE,01-701-1180,2.0,E01,VOMITING,VOMITING,,VOMITING,,HLT_0016,,HLGT_0350,,GASTROINTESTINAL DISORDERS,,GASTROINTESTINAL DISORDERS,,MILD,N,,NONE,RECOVERED/RESOLVED,N,N,N,N,N,N,N,TREATMENT,2013-02-25,2013-02-12,2013-02-12,14.0,1.0,1.0
CDISCPILOT01,AE,01-701-1181,1.0,E16,AGITATION,AGITATION,,AGITATION,,HLT_0140,,HLGT_0170,,PSYCHIATRIC DISORDERS,,PSYCHIATRIC DISORDERS,,MODERATE,N,,NONE,RECOVERED/RESOLVED,N,N,N,N,N,N,N,TREATMENT,2013-12-12,2013-12-09,2013-12-09,8.0,5.0,5.0
CDISCPILOT01,AE,01-701-1188,7.0,E09,APPLICATION SITE URTICARIA,APPLICATION SITE URTICARIA,,APPLICATION SITE URTICARIA,,HLT_0196,,HLGT_0233,,GENERAL DISORDERS AND ADMINISTRATION SITE CONDITIONS,,GENERAL DISORDERS AND ADMINISTRATION SITE CONDITIONS,,MILD,N,,PROBABLE,NOT RECOVERED/NOT RESOLVED,N,N,N,N,N,N,N,TREATMENT,2013-03-25,2013-03-21,,39.0,35.0,
CDISCPILOT01,AE,01-701-1188,1.0,E04,ERYTHEMA,ERYTHEMA,,ERYTHEMA,,HLT_0284,,HLGT_0192,,SKIN AND SUBCUTANEOUS TISSUE DISORDERS,,SKIN AND SUBCUTANEOUS TISSUE DISORDERS,,MILD,N,,PROBABLE,NOT RECOVERED/NOT RESOLVED,N,N,N,N,N,N,N,TREATMENT,2013-03-02,2013-02-16,,16.0,2.0,
CDISCPILOT01,AE,01-701-1188,3.0,E04,ERYTHEMA,ERYTHEMA,,ERYTHEMA,,HLT_0284,,HLGT_0192,,SKIN AND SUBCUTANEOUS TISSUE DISORDERS,,SKIN AND SUBCUTANEOUS TISSUE DISORDERS,,MODERATE,N,,PROBABLE,NOT RECOVERED/NOT RESOLVED,N,N,N,N,N,N,N,TREATMENT,2013-03-16,2013-02-16,,30.0,2.0,
CDISCPILOT01,AE,01-701-1188,2.0,E05,PRURITUS,ITCHING,,PRURITUS,,HLT_0778,,HLGT_0695,,SKIN AND SUBCUTANEOUS TISSUE DISORDERS,,SKIN AND SUBCUTANEOUS TISSUE DISORDERS,,MILD,N,,PROBABLE,NOT RECOVERED/NOT RESOLVED,N,N,N,N,N,N,N,TREATMENT,2013-03-02,2013-02-16,,16.0,2.0,
CDISCPILOT01,AE,01-701-1188,4.0,E05,PRURITUS,ITCHING,,PRURITUS,,HLT_0778,,HLGT_0695,,SKIN AND SUBCUTANEOUS TISSUE DISORDERS,,SKIN AND SUBCUTANEOUS TISSUE DISORDERS,,MODERATE,N,,PROBABLE,NOT RECOVERED/NOT RESOLVED,N,N,N,N,N,N,N,TREATMENT,2013-03-16,2013-02-16,,30.0,2.0,
CDISCPILOT01,AE,01-701-1188,5.0,E06,URTICARIA,WELTS,,URTICARIA,,HLT_0420,,HLGT_0705,,SKIN AND SUBCUTANEOUS TISSUE DISORDERS,,SKIN AND SUBCUTANEOUS TISSUE DISORDERS,,MILD,N,,PROBABLE,NOT RECOVERED/NOT RESOLVED,N,N,N,N,N,N,N,TREATMENT,2013-03-16,2013-03-04,,30.0,18.0,
CDISCPILOT01,AE,01-701-1188,6.0,E06,URTICARIA,WELTS,,URTICARIA,,HLT_0420,,HLGT_0705,,SKIN AND SUBCUTANEOUS TISSUE DISORDERS,,SKIN AND SUBCUTANEOUS TISSUE DISORDERS,,MODERATE,N,,PROBABLE,NOT RECOVERED/NOT RESOLVED,N,N,N,N,N,N,N,TREATMENT,2013-03-25,2013-03-04,,39.0,18.0,
CDISCPILOT01,AE,01-701-1188,8.0,E10,URTICARIA,WELTS,,URTICARIA,,HLT_0420,,HLGT_0705,,SKIN AND SUBCUTANEOUS TISSUE DISORDERS,,SKIN AND SUBCUTANEOUS TISSUE DISORDERS,,MILD,N,,PROBABLE,NOT RECOVERED/NOT RESOLVED,N,N,N,N,N,N,N,TREATMENT,2013-03-25,2013-03-21,,39.0,35.0,
CDISCPILOT01,AE,01-701-1192,13.0,E13,APPLICATION SITE ERYTHEMA,APPLICATION SITE REDNESS,,APPLICATION SITE ERYTHEMA,,HLT_0617,,HLGT_0152,,GENERAL DISORDERS AND ADMINISTRATION SITE CONDITIONS,,GENERAL DISORDERS AND ADMINISTRATION SITE CONDITIONS,,MILD,N,,PROBABLE,NOT RECOVERED/NOT RESOLVED,N,N,N,N,N,N,N,TREATMENT,2012-12-13,2012-12-05,,145.0,137.0,
CDISCPILOT01,AE,01-701-1192,15.0,E12,APPLICATION SITE IRRITATION,APPLICATION SITE BURNING,,APPLICATION SITE IRRITATION,,HLT_0061,,HLGT_0346,,GENERAL DISORDERS AND ADMINISTRATION SITE CONDITIONS,,GENERAL DISORDERS AND ADMINISTRATION SITE CONDITIONS,,MILD,N,,PROBABLE,RECOVERED/RESOLVED,N,N,N,N,N,N,N,TREATMENT,2013-01-11,2012-12-05,2012-12-16,174.0,137.0,148.0
CDISCPILOT01,AE,01-701-1192,14.0,E14,APPLICATION SITE PRURITUS,APPLICATION SITE ITCHING,,APPLICATION SITE PRURITUS,,HLT_0317,,HLGT_0338,,GENERAL DISORDERS AND ADMINISTRATION SITE CONDITIONS,,GENERAL DISORDERS AND ADMINISTRATION SITE CONDITIONS,,MILD,N,,PROBABLE,NOT RECOVERED/NOT RESOLVED,N,N,N,N,N,N,N,TREATMENT,2012-12-13,2012-12-05,,145.0,137.0,
CDISCPILOT01,AE,01-701-1192,4.0,E01,COUGH,COUGH,,COUGH,,HLT_0701,,HLGT_0280,,"RESPIRATORY, THORACIC AND MEDIASTINAL DISORDERS",,"RESPIRATORY, THORACIC AND MEDIASTINAL DISORDERS",,MODERATE,N,,NONE,NOT RECOVERED/NOT RESOLVED,N,N,N,N,N,N,N,SCREENING,2012-09-23,2010-06,,64.0,,
CDISCPILOT01,AE,01-701-1192,9.0,E01,COUGH,COUGH,,COUGH,,HLT_0701,,HLGT_0280,,"RESPIRATORY, THORACIC AND MEDIASTINAL DISORDERS",,"RESPIRATORY, THORACIC AND MEDIASTINAL DISORDERS",,MILD,N,,NONE,NOT RECOVERED/NOT RESOLVED,N,N,N,N,N,N,N,SCREENING,2012-10-14,2010-06,,85.0,,
CDISCPILOT01,AE,01-701-1192,6.0,E09,ERYTHEMA,ERYTHEMA FACIAL,,ERYTHEMA,,HLT_0284,,HLGT_0192,,SKIN AND SUBCUTANEOUS TISSUE DISORDERS,,SKIN AND SUBCUTANEOUS TISSUE DISORDERS,,MILD,N,,NONE,RECOVERED/RESOLVED,N,N,N,N,N,N,N,TREATMENT,2012-09-23,2012-08-07,2012-09-14,64.0,17.0,55.0
CDISCPILOT01,AE,01-701-1192,11.0,E11,MUSCULAR WEAKNESS,MUSCULAR WEAKNESS,,MUSCULAR WEAKNESS,,HLT_0444,,HLGT_0211,,MUSCULOSKELETAL AND CONNECTIVE TISSUE DISORDERS,,MUSCULOSKELETAL AND CONNECTIVE TISSUE DISORDERS,,MODERATE,N,,NONE,RECOVERED/RESOLVED,N,N,N,N,N,N,N,TREATMENT,2012-10-14,2012-09-07,2012-09-30,85.0,48.0,71.0
CDISCPILOT01,AE,01-701-1192,1.0,E06,NASAL MUCOSA BIOPSY,NASAL MUCOSA BIOPSY,,NASAL MUCOSA BIOPSY,,HLT_0680,,HLGT_0396,,INVESTIGATIONS,,INVESTIGATIONS,,MILD,N,,NONE,RECOVERED/RESOLVED,N,N,N,N,N,N,N,TREATMENT,2012-08-07,2012-08-03,2012-08-03,17.0,13.0,13.0
CDISCPILOT01,AE,01-701-1192,10.0,E10,PNEUMONIA,PNEUMONIA,,PNEUMONIA,,HLT_0251,,HLGT_0671,,INFECTIONS AND INFESTATIONS,,INFECTIONS AND INFESTATIONS,,MODERATE,N,,NONE,RECOVERED/RESOLVED,N,N,N,N,Y,N,N,TREATMENT,2012-10-14,2012-09-07,2012-10-06,85.0,48.0,77.0
CDISCPILOT01,AE,01-701-1192,5.0,E08,SECRETION DISCHARGE,SECRETION DISCHARGE,,SECRETION DISCHARGE,,HLT_0683,,HLGT_0575,,GENERAL DISORDERS AND ADMINISTRATION SITE CONDITIONS,,GENERAL DISORDERS AND ADMINISTRATION SITE CONDITIONS,,MILD,N,,NONE,RECOVERED/RESOLVED,N,N,N,N,N,N,N,TREATMENT,2012-09-23,2012-08-07,2012-09-14,64.0,17.0,55.0
CDISCPILOT01,AE,01-701-1203,1.0,E05,EYE LASER SURGERY,EYE LASER SURGERY,,EYE LASER SURGERY,,HLT_0355,,HLGT_0189,,SURGICAL AND MEDICAL PROCEDURES,,SURGICAL AND MEDICAL PROCEDURES,,MILD,N,,NONE,RECOVERED/RESOLVED,N,N,N,N,N,N,N,TREATMENT,2013-03-30,2013-03-21,2013-03-21,57.0,48.0,48.0
CDISCPILOT01,AE,01-701-1211,5.0,E05,APPLICATION SITE ERYTHEMA,APPLICATION SITE REDNESS,,APPLICATION SITE ERYTHEMA,,HLT_0617,,HLGT_0152,,GENERAL DISORDERS AND ADMINISTRATION SITE CONDITIONS,,GENERAL DISORDERS AND ADMINISTRATION SITE CONDITIONS,,MILD,N,,POSSIBLE,NOT RECOVERED/NOT RESOLVED,N,N,N,N,N,N,N,TREATMENT,2012-12-11,2012-11-29,,27.0,15.0,
CDISCPILOT01,AE,01-701-1211,1.0,E08,APPLICATION SITE PRURITUS,APPLICATION SITE ITCHING,,APPLICATION SITE PRURITUS,,HLT_0317,,HLGT_0338,,GENERAL DISORDERS AND ADMINISTRATION SITE CONDITIONS,,GENERAL DISORDERS AND ADMINISTRATION SITE CONDITIONS,,MILD,N,,POSSIBLE,NOT RECOVERED/NOT RESOLVED,N,N,N,N,N,N,N,TREATMENT,2012-11-28,2012-11-16,,14.0,2.0,
CDISCPILOT01,AE,01-701-1211,7.0,E12,CONFUSIONAL STATE,CONFUSION,,CONFUSIONAL STATE,,HLT_0642,,HLGT_0329,,PSYCHIATRIC DISORDERS,,PSYCHIATRIC DISORDERS,,MODERATE,N,,NONE,NOT RECOVERED/NOT RESOLVED,N,N,N,N,N,N,N,TREATMENT,2013-01-14,2013-01-11,,61.0,58.0,
CDISCPILOT01,AE,01-701-1211,8.0,E13,DYSPNOEA,SHORTNESS OF BREATH,,DYSPNOEA,,HLT_0296,,HLGT_0255,,"RESPIRATORY, THORACIC AND MEDIASTINAL DISORDERS",,"RESPIRATORY, THORACIC AND MEDIASTINAL DISORDERS",,MODERATE,N,,NONE,NOT RECOVERED/NOT RESOLVED,N,N,N,N,N,N,N,TREATMENT,2013-01-14,2013-01-11,,61.0,58.0,
CDISCPILOT01,AE,01-701-1211,4.0,E09,INCONTINENCE,INCONTINENCE,,INCONTINENCE,,HLT_0560,,HLGT_0503,,RENAL AND URINARY DISORDERS,,RENAL AND URINARY DISORDERS,,MILD,N,,NONE,NOT RECOVERED/NOT RESOLVED,N,N,N,N,N,N,N,TREATMENT,2012-11-28,2012-11-22,,14.0,8.0,
CDISCPILOT01,AE,01-701-1211,2.0,E03,JOINT DISLOCATION,SHOULDER DISLOCATION,,JOINT DISLOCATION,,HLT_0035,,HLGT_0227,,"INJURY, POISONING AND PROCEDURAL COMPLICATIONS",,"INJURY, POISONING AND PROCEDURAL COMPLICATIONS",,MODERATE,N,,NONE,RECOVERED/RESOLVED,N,N,N,N,N,N,N,TREATMENT,2012-11-28,2012-11-21,2012-11-21,14.0,7.0,7.0
CDISCPILOT01,AE,01-701-1211,3.0,E04,SHOULDER PAIN,SHOULDER PAIN,,SHOULDER PAIN,,HLT_0527,,HLGT_0288,,MUSCULOSKELETAL AND CONNECTIVE TISSUE DISORDERS,,MUSCULOSKELETAL AND CONNECTIVE TISSUE DISORDERS,,MILD,N,,NONE,NOT RECOVERED/NOT RESOLVED,N,N,N,N,N,N,N,TREATMENT,2012-11-28,2012-11-21,,14.0,7.0,
CDISCPILOT01,AE,01-701-1211,6.0,E06,SKIN LACERATION,LACERATION OF FACE,,SKIN LACERATION,,HLT_0075,,HLGT_0118,,"INJURY, POISONING AND PROCEDURAL COMPLICATIONS",,"INJURY, POISONING AND PROCEDURAL COMPLICATIONS",,MILD,N,,NONE,NOT RECOVERED/NOT RESOLVED,N,N,N,N,N,N,N,TREATMENT,2012-12-11,2012-12-09,,27.0,25.0,
CDISCPILOT01,AE,01-701-1211,9.0,E11,SUDDEN DEATH,SUDDEN DEATH,,SUDDEN DEATH,,HLT_0142,,HLGT_0272,,GENERAL DISORDERS AND ADMINISTRATION SITE CONDITIONS,,GENERAL DISORDERS AND ADMINISTRATION SITE CONDITIONS,,SEVERE,N,,NONE,FATAL,N,N,N,Y,N,Y,N,TREATMENT,2013-01-14,2013-01-14,2013-01-14,61.0,61.0,61.0
CDISCPILOT01,AE,01-701-1239,5.0,E13,APPLICATION SITE IRRITATION,APPLICATION SITE IRRITATION,,APPLICATION SITE IRRITATION,,HLT_0061,,HLGT_0346,,GENERAL DISORDERS AND ADMINISTRATION SITE CONDITIONS,,GENERAL DISORDERS AND ADMINISTRATION SITE CONDITIONS,,MILD,N,,PROBABLE,RECOVERED/RESOLVED,N,N,N,N,N,N,N,TREATMENT,2014-02-10,2014-01-20,2014-02-08,31.0,10.0,29.0
CDISCPILOT01,AE,01-701-1239,1.0,E11,ERYTHEMA,ERYTHEMA,,ERYTHEMA,,HLT_0284,,HLGT_0192,,SKIN AND SUBCUTANEOUS TISSUE DISORDERS,,SKIN AND SUBCUTANEOUS TISSUE DISORDERS,,MILD,N,,POSSIBLE,NOT RECOVERED/NOT RESOLVED,N,N,N,N,N,N,N,TREATMENT,2014-01-25,2014-01-12,,15.0,2.0,
CDISCPILOT01,AE,01-701-1239,6.0,E11,ERYTHEMA,ERYTHEMA,,ERYTHEMA,,HLT_0284,,HLGT_0192,,SKIN AND SUBCUTANEOUS TISSUE DISORDERS,,SKIN AND SUBCUTANEOUS TISSUE DISORDERS,,MODERATE,N,,POSSIBLE,NOT RECOVERED/NOT RESOLVED,N,N,N,N,N,N,N,TREATMENT,2014-02-19,2014-01-12,,40.0,2.0,
CDISCPILOT01,AE,01-701-1239,9.0,E16,FATIGUE,FATIGUE,,FATIGUE,,HLT_0043,,HLGT_0181,,GENERAL DISORDERS AND ADMINISTRATION SITE CONDITIONS,,GENERAL DISORDERS AND ADMINISTRATION SITE CONDITIONS,,MILD,N,,REMOTE,NOT RECOVERED/NOT RESOLVED,N,N,N,N,N,N,N,SCREENING,2014-04-02,2014-03,,82.0,,
CDISCPILOT01,AE,01-701-1239,10.0,E17,HORDEOLUM,STYE,,HORDEOLUM,,HLT_0604,,HLGT_0290,,INFECTIONS AND INFESTATIONS,,INFECTIONS AND INFESTATIONS,,MILD,N,,NONE,NOT RECOVERED/NOT RESOLVED,N,N,N,N,N,N,N,SCREENING,2014-05-02,2014-04,,112.0,,
CDISCPILOT01,AE,01-701-1239,3.0,E12,PRURITUS,ITCHING,,PRURITUS,,HLT_0778,,HLGT_0695,,SKIN AND SUBCUTANEOUS TISSUE DISORDERS,,SKIN AND SUBCUTANEOUS TISSUE DISORDERS,,MILD,N,,POSSIBLE,NOT RECOVERED/NOT RESOLVED,N,N,N,N,N,N,N,TREATMENT,2014-01-25,2014-01-13,,15.0,3.0,
CDISCPILOT01,AE,01-701-1239,2.0,E15,SKIN ODOUR ABNORMAL,SKIN ODOR ABNORMAL,,SKIN ODOUR ABNORMAL,,HLT_0510,,HLGT_0184,,SKIN AND SUBCUTANEOUS TISSUE DISORDERS,,SKIN AND SUBCUTANEOUS TISSUE DISORDERS,,MILD,N,,REMOTE,NOT RECOVERED/NOT RESOLVED,N,N,N,N,N,N,N,TREATMENT,2014-01-25,2014-01-12,,15.0,2.0,
CDISCPILOT01,AE,01-701-1239,8.0,E14,UPPER RESPIRATORY TRACT INFECTION,UPPER RESPIRATORY INFECTION,,UPPER RESPIRATORY TRACT INFECTION,,HLT_0520,,HLGT_0489,,INFECTIONS AND INFESTATIONS,,INFECTIONS AND INFESTATIONS,,MILD,N,,NONE,RECOVERED/RESOLVED,N,N,N,N,N,N,N,TREATMENT,2014-04-02,2014-02-20,2014-03-12,82.0,41.0,61.0
CDISCPILOT01,AE,01-701-1275,9.0,E09,COUGH,COUGH,,COUGH,,HLT_0701,,HLGT_0280,,"RESPIRATORY, THORACIC AND MEDIASTINAL DISORDERS",,"RESPIRATORY, THORACIC AND MEDIASTINAL DISORDERS",,MILD,N,,NONE,RECOVERED/RESOLVED,N,N,N,N,N,N,N,TREATMENT,2014-04-05,2014-03-12,2014-03-27,58.0,34.0,49.0
CDISCPILOT01,AE,01-701-1275,12.0,E06,ERYTHEMA,ERYTHEMA,,ERYTHEMA,,HLT_0284,,HLGT_0192,,SKIN AND SUBCUTANEOUS TISSUE DISORDERS,,SKIN AND SUBCUTANEOUS TISSUE DISORDERS,,MILD,N,,POSSIBLE,RECOVERED/RESOLVED,N,N,N,N,N,N,N,TREATMENT,2014-06-14,2014-02-24,2014-06-12,128.0,18.0,126.0
CDISCPILOT01,AE,01-701-1275,10.0,E10,NASAL CONGESTION,NASAL CONGESTION,,NASAL CONGESTION,,HLT_0118,,HLGT_0549,,"RESPIRATORY, THORACIC AND MEDIASTINAL DISORDERS",,"RESPIRATORY, THORACIC AND MEDIASTINAL DISORDERS",,MILD,N,,NONE,RECOVERED/RESOLVED,N,N,N,N,N,N,N,TREATMENT,2014-04-05,2014-03-12,2014-03-27,58.0,34.0,49.0
CDISCPILOT01,AE,01-701-1275,11.0,E04,NAUSEA,NAUSEA,,NAUSEA,,HLT_0742,,HLGT_0326,,GASTROINTESTINAL DISORDERS,,GASTROINTESTINAL DISORDERS,,MILD,N,,POSSIBLE,RECOVERED/RESOLVED,N,N,N,N,N,N,N,TREATMENT,2014-06-14,2014-02-13,2014-06-03,128.0,7.0,117.0
CDISCPILOT01,AE,01-701-1275,14.0,E08,PAROSMIA,STRANGE SMELL SENSATION,,PAROSMIA,,HLT_0258,,HLGT_0471,,NERVOUS SYSTEM DISORDERS,,NERVOUS SYSTEM DISORDERS,,MILD,N,,POSSIBLE,RECOVERED/RESOLVED,N,N,N,N,N,N,N,TREATMENT,2014-06-14,2014-02-24,2014-06-03,128.0,18.0,117.0
CDISCPILOT01,AE,01-701-1275,15.0,E11,PRURITUS,ITCHING,,PRURITUS,,HLT_0778,,HLGT_0695,,SKIN AND SUBCUTANEOUS TISSUE DISORDERS,,SKIN AND SUBCUTANEOUS TISSUE DISORDERS,,MILD,N,,POSSIBLE,RECOVERED/RESOLVED,N,N,N,N,N,N,N,TREATMENT,2014-06-14,2014-02-24,2014-06-12,128.0,18.0,126.0
CDISCPILOT01,AE,01-701-1275,13.0,E07,SALIVARY HYPERSECRETION,HYPERSALIVATION,,SALIVARY HYPERSECRETION,,HLT_0374,,HLGT_0488,,GASTROINTESTINAL DISORDERS,,GASTROINTESTINAL DISORDERS,,MILD,N,,POSSIBLE,RECOVERED/RESOLVED,N,N,N,N,N,N,N,TREATMENT,2014-06-14,2014-02-24,2014-06-03,128.0,18.0,117.0
CDISCPILOT01,AE,01-701-1275,2.0,E05,VOMITING,VOMITING,,VOMITING,,HLT_0016,,HLGT_0350,,GASTROINTESTINAL DISORDERS,,GASTROINTESTINAL DISORDERS,,MILD,N,,POSSIBLE,RECOVERED/RESOLVED,N,N,N,N,N,N,N,TREATMENT,2014-03-07,2014-02-23,2014-02-23,29.0,17.0,17.0
CDISCPILOT01,AE,01-701-1287,3.0,E04,APPLICATION SITE ERYTHEMA,APPLICATION SITE REDNESS,,APPLICATION SITE ERYTHEMA,,HLT_0617,,HLGT_0152,,GENERAL DISORDERS AND ADMINISTRATION SITE CONDITIONS,,GENERAL DISORDERS AND ADMINISTRATION SITE CONDITIONS,,MILD,N,,PROBABLE,NOT RECOVERED/NOT RESOLVED,N,N,N,N,N,N,N,TREATMENT,2014-03-21,2014-03-09,,56.0,44.0,
CDISCPILOT01,AE,01-701-1287,2.0,E03,APPLICATION SITE PRURITUS,APPLICATION SITE ITCHING,,APPLICATION SITE PRURITUS,,HLT_0317,,HLGT_0338,,GENERAL DISORDERS AND ADMINISTRATION SITE CONDITIONS,,GENERAL DISORDERS AND ADMINISTRATION SITE CONDITIONS,,MILD,N,,POSSIBLE,NOT RECOVERED/NOT RESOLVED,N,N,N,N,N,N,N,TREATMENT,2014-03-06,2014-02-22,,41.0,29.0,
CDISCPILOT01,AE,01-701-1287,5.0,E05,RHINORRHOEA,RUNNY NOSE,,RHINORRHOEA,,HLT_0635,,HLGT_0460,,"RESPIRATORY, THORACIC AND MEDIASTINAL DISORDERS",,"RESPIRATORY, THORACIC AND MEDIASTINAL DISORDERS",,MILD,N,,NONE,RECOVERED/RESOLVED,N,N,N,N,N,N,N,TREATMENT,2014-07-26,2014-07-09,2014-07-12,183.0,166.0,169.0
CDISCPILOT01,AE,01-701-1287,1.0,E02,SALIVARY HYPERSECRETION,INCREASED SALIVATION,,SALIVARY HYPERSECRETION,,HLT_0374,,HLGT_0488,,GASTROINTESTINAL DISORDERS,,GASTROINTESTINAL DISORDERS,,MILD,N,,NONE,NOT RECOVERED/NOT RESOLVED,N,N,N,N,N,N,N,TREATMENT,2014-02-11,2014-01-26,,18.0,2.0,
CDISCPILOT01,AE,01-701-1294,3.0,E08,APPLICATION SITE ERYTHEMA,APPLICATION SITE REDNESS,,APPLICATION SITE ERYTHEMA,,HLT_0617,,HLGT_0152,,GENERAL DISORDERS AND ADMINISTRATION SITE CONDITIONS,,GENERAL DISORDERS AND ADMINISTRATION SITE CONDITIONS,,MILD,N,,PROBABLE,NOT RECOVERED/NOT RESOLVED,N,N,N,N,N,N,N,TREATMENT,2013-05-22,2013-05-19,,60.0,57.0,
CDISCPILOT01,AE,01-701-1294,5.0,E08,APPLICATION SITE ERYTHEMA,APPLICATION SITE REDNESS,,APPLICATION SITE ERYTHEMA,,HLT_0617,,HLGT_0152,,GENERAL DISORDERS AND ADMINISTRATION SITE CONDITIONS,,GENERAL DISORDERS AND ADMINISTRATION SITE CONDITIONS,,MODERATE,N,,PROBABLE,NOT RECOVERED/NOT RESOLVED,N,N,N,N,N,N,N,TREATMENT,2013-06-14,2013-05-19,,83.0,57.0,
CDISCPILOT01,AE,01-701-1294,1.0,E06,APPLICATION SITE PRURITUS,APPLICATION SITE ITCHING,,APPLICATION SITE PRURITUS,,HLT_0317,,HLGT_0338,,GENERAL DISORDERS AND ADMINISTRATION SITE CONDITIONS,,GENERAL DISORDERS AND ADMINISTRATION SITE CONDITIONS,,MODERATE,N,,NONE,RECOVERED/RESOLVED,N,N,N,N,N,N,N,SCREENING,2013-03-24,2013-03-22,2013-03-23,1.0,-2.0,-1.0
CDISCPILOT01,AE,01-701-1294,2.0,E07,APPLICATION SITE PRURITUS,APPLICATION SITE ITCHING,,APPLICATION SITE PRURITUS,,HLT_0317,,HLGT_0338,,GENERAL DISORDERS AND ADMINISTRATION SITE CONDITIONS,,GENERAL DISORDERS AND ADMINISTRATION SITE CONDITIONS,,MILD,N,,POSSIBLE,NOT RECOVERED/NOT RESOLVED,N,N,N,N,N,N,N,TREATMENT,2013-05-22,2013-05-19,,60.0,57.0,
CDISCPILOT01,AE,01-701-1294,4.0,E07,APPLICATION SITE PRURITUS,APPLICATION SITE ITCHING,,APPLICATION SITE PRURITUS,,HLT_0317,,HLGT_0338,,GENERAL DISORDERS AND ADMINISTRATION SITE CONDITIONS,,GENERAL DISORDERS AND ADMINISTRATION SITE CONDITIONS,,MODERATE,N,,POSSIBLE,NOT RECOVERED/NOT RESOLVED,N,N,N,N,N,N,N,TREATMENT,2013-06-14,2013-05-19,,83.0,57.0,
CDISCPILOT01,AE,01-701-1294,6.0,E09,RASH ERYTHEMATOUS,ERYTHEMATOUS RASH,,RASH ERYTHEMATOUS,,HLT_0336,,HLGT_0701,,SKIN AND SUBCUTANEOUS TISSUE DISORDERS,,SKIN AND SUBCUTANEOUS TISSUE DISORDERS,,MODERATE,N,,PROBABLE,NOT RECOVERED/NOT RESOLVED,N,N,N,N,N,N,N,TREATMENT,2013-06-14,2013-06-10,,83.0,79.0,
CDISCPILOT01,AE,01-701-1302,16.0,E27,APPLICATION SITE ERYTHEMA,APPLICATION SITE REDNESS,,APPLICATION SITE ERYTHEMA,,HLT_0617,,HLGT_0152,,GENERAL DISORDERS AND ADMINISTRATION SITE CONDITIONS,,GENERAL DISORDERS AND ADMINISTRATION SITE CONDITIONS,,MILD,N,,PROBABLE,NOT RECOVERED/NOT RESOLVED,N,N,N,N,N,N,N,TREATMENT,2013-10-22,2013-10-15,,55.0,48.0,
CDISCPILOT01,AE,01-701-1302,1.0,E21,APPLICATION SITE PERSPIRATION,APPLICATION SITE PERSPIRATION,,APPLICATION SITE PERSPIRATION,,HLT_0283,,HLGT_0403,,GENERAL DISORDERS AND ADMINISTRATION SITE CONDITIONS,,GENERAL DISORDERS AND ADMINISTRATION SITE CONDITIONS,,MILD,N,,POSSIBLE,NOT RECOVERED/NOT RESOLVED,N,N,N,N,N,N,N,TREATMENT,2013-09-15,2013-08-30,,18.0,2.0,
CDISCPILOT01,AE,01-701-1302,17.0,E28,APPLICATION SITE PRURITUS,APPLICATION SITE ITCHING,,APPLICATION SITE PRURITUS,,HLT_0317,,HLGT_0338,,GENERAL DISORDERS AND ADMINISTRATION SITE CONDITIONS,,GENERAL DISORDERS AND ADMINISTRATION SITE CONDITIONS,,MILD,N,,PROBABLE,NOT RECOVERED/NOT RESOLVED,N,N,N,N,N,N,N,TREATMENT,2013-10-22,2013-10-15,,55.0,48.0,
CDISCPILOT01,AE,01-701-1302,15.0,E19,CONTUSION,BRUISE,,CONTUSION,,HLT_0713,,HLGT_0381,,"INJURY, POISONING AND PROCEDURAL COMPLICATIONS",,"INJURY, POISONING AND PROCEDURAL COMPLICATIONS",,MILD,N,,REMOTE,RECOVERED/RESOLVED,N,N,N,N,N,N,N,TREATMENT,2013-10-22,2013-09-05,2013-10-08,55.0,8.0,41.0
CDISCPILOT01,AE,01-701-1302,9.0,E17,DIZZINESS,DIZZY,,DIZZINESS,,HLT_0619,,HLGT_0751,,NERVOUS SYSTEM DISORDERS,,NERVOUS SYSTEM DISORDERS,,MODERATE,N,,REMOTE,RECOVERED/RESOLVED,N,N,N,N,N,N,N,TREATMENT,2013-09-15,2013-09-02,2013-09-03,18.0,5.0,6.0
CDISCPILOT01,AE,01-701-1302,11.0,E20,DIZZINESS,LIGHTHEADEDNESS,,DIZZINESS,,HLT_0619,,HLGT_0751,,NERVOUS SYSTEM DISORDERS,,NERVOUS SYSTEM DISORDERS,,MILD,N,,POSSIBLE,NOT RECOVERED/NOT RESOLVED,N,N,N,N,N,N,N,TREATMENT,2013-09-15,2013-09-04,,18.0,7.0,
CDISCPILOT01,AE,01-701-1302,14.0,E25,EPISTAXIS,NOSE BLEED,,EPISTAXIS,,HLT_0386,,HLGT_0577,,"RESPIRATORY, THORACIC AND MEDIASTINAL DISORDERS",,"RESPIRATORY, THORACIC AND MEDIASTINAL DISORDERS",,MILD,N,,REMOTE,NOT RECOVERED/NOT RESOLVED,N,N,N,N,N,N,N,TREATMENT,2013-10-08,2013-09-30,,41.0,33.0,
CDISCPILOT01,AE,01-701-1302,21.0,E31,FEELING ABNORMAL,FOGGY FEELING IN HEAD,,FEELING ABNORMAL,,HLT_0524,,HLGT_0749,,GENERAL DISORDERS AND ADMINISTRATION SITE CONDITIONS,,GENERAL DISORDERS AND ADMINISTRATION SITE CONDITIONS,,MILD,N,,POSSIBLE,NOT RECOVERED/NOT RESOLVED,N,N,N,N,N,N,N,TREATMENT,2013-11-05,2013-10-24,,69.0,57.0,
CDISCPILOT01,AE,01-701-1302,13.0,E23,HEADACHE,HEADACHE,,HEADACHE,,HLT_0064,,HLGT_0344,,NERVOUS SYSTEM DISORDERS,,NERVOUS SYSTEM DISORDERS,,MILD,N,,NONE,NOT RECOVERED/NOT RESOLVED,N,N,N,N,N,N,N,TREATMENT,2013-09-15,2013-09-15,,18.0,18.0,
CDISCPILOT01,AE,01-701-1302,2.0,E24,HYPERHIDROSIS,PERSPIRATION EXCESSIVE,,HYPERHIDROSIS,,HLT_0587,,HLGT_0005,,SKIN AND SUBCUTANEOUS TISSUE DISORDERS,,SKIN AND SUBCUTANEOUS TISSUE DISORDERS,,MILD,N,,POSSIBLE,NOT RECOVERED/NOT RESOLVED,N,N,N,N,N,N,N,TREATMENT,2013-09-15,2013-08-30,,18.0,2.0,
CDISCPILOT01,AE,01-701-1302,23.0,E33,LIBIDO DECREASED,LIBIDO DECREASED,,LIBIDO DECREASED,,HLT_0338,,HLGT_0496,,PSYCHIATRIC DISORDERS,,PSYCHIATRIC DISORDERS,,MILD,N,,POSSIBLE,NOT RECOVERED/NOT RESOLVED,N,N,N,N,N,N,N,TREATMENT,2013-11-05,2013-10-24,,69.0,57.0,
CDISCPILOT01,AE,01-701-1302,22.0,E32,LISTLESS,LISTLESSNESS,,LISTLESS,,HLT_0657,,HLGT_0124,,PSYCHIATRIC DISORDERS,,PSYCHIATRIC DISORDERS,,MILD,N,,POSSIBLE,NOT RECOVERED/NOT RESOLVED,N,N,N,N,N,N,N,TREATMENT,2013-11-05,2013-10-24,,69.0,57.0,
CDISCPILOT01,AE,01-701-1302,8.0,E16,MALAISE,MALAISE,,MALAISE,,HLT_0456,,HLGT_0178,,GENERAL DISORDERS AND ADMINISTRATION SITE CONDITIONS,,GENERAL DISORDERS AND ADMINISTRATION SITE CONDITIONS,,MILD,N,,REMOTE,NOT RECOVERED/NOT RESOLVED,N,N,N,N,N,N,N,TREATMENT,2013-09-15,2013-09-02,,18.0,5.0,
CDISCPILOT01,AE,01-701-1302,18.0,E16,MALAISE,MALAISE,,MALAISE,,HLT_0456,,HLGT_0178,,GENERAL DISORDERS AND ADMINISTRATION SITE CONDITIONS,,GENERAL DISORDERS AND ADMINISTRATION SITE CONDITIONS,,MODERATE,N,,REMOTE,NOT RECOVERED/NOT RESOLVED,N,N,N,N,N,N,N,TREATMENT,2013-11-05,2013-09-02,,69.0,5.0,
CDISCPILOT01,AE,01-701-1302,10.0,E18,MYALGIA,MYALGIA,,MYALGIA,,HLT_0700,,HLGT_0121,,MUSCULOSKELETAL AND CONNECTIVE TISSUE DISORDERS,,MUSCULOSKELETAL AND CONNECTIVE TISSUE DISORDERS,,MILD,N,,POSSIBLE,NOT RECOVERED/NOT RESOLVED,N,N,N,N,N,N,N,TREATMENT,2013-09-15,2013-09-02,,18.0,5.0,
CDISCPILOT01,AE,01-701-1302,5.0,E13,NASAL CONGESTION,NASAL CONGESTION,,NASAL CONGESTION,,HLT_0118,,HLGT_0549,,"RESPIRATORY, THORACIC AND MEDIASTINAL DISORDERS",,"RESPIRATORY, THORACIC AND MEDIASTINAL DISORDERS",,MILD,N,,NONE,NOT RECOVERED/NOT RESOLVED,N,N,N,N,N,N,N,TREATMENT,2013-09-15,2013-09-01,,18.0,4.0,
CDISCPILOT01,AE,01-701-1302,4.0,E22,PAIN,STINGING,,PAIN,,HLT_0314,,HLGT_0478,,GENERAL DISORDERS AND ADMINISTRATION SITE CONDITIONS,,GENERAL DISORDERS AND ADMINISTRATION SITE CONDITIONS,,MILD,N,,POSSIBLE,NOT RECOVERED/NOT RESOLVED,N,N,N,N,N,N,N,TREATMENT,2013-09-15,2013-08-31,,18.0,3.0,
CDISCPILOT01,AE,01-701-1302,6.0,E14,PHARYNGOLARYNGEAL PAIN,SORE THROAT,,PHARYNGOLARYNGEAL PAIN,,HLT_0130,,HLGT_0402,,"RESPIRATORY, THORACIC AND MEDIASTINAL DISORDERS",,"RESPIRATORY, THORACIC AND MEDIASTINAL DISORDERS",,MILD,N,,NONE,NOT RECOVERED/NOT RESOLVED,N,N,N,N,N,N,N,TREATMENT,2013-09-15,2013-09-02,,18.0,5.0,
CDISCPILOT01,AE,01-701-1302,7.0,E15,PRODUCTIVE COUGH,PRODUCTIVE COUGH,,PRODUCTIVE COUGH,,HLT_0545,,HLGT_0681,,"RESPIRATORY, THORACIC AND MEDIASTINAL DISORDERS",,"RESPIRATORY, THORACIC AND MEDIASTINAL DISORDERS",,MILD,N,,NONE,NOT RECOVERED/NOT RESOLVED,N,N,N,N,N,N,N,TREATMENT,2013-09-15,2013-09-02,,18.0,5.0,
CDISCPILOT01,AE,01-701-1302,19.0,E29,RESPIRATORY TRACT CONGESTION,RESPIRATORY TRACT CONGESTION,,RESPIRATORY TRACT CONGESTION,,HLT_0330,,HLGT_0424,,"RESPIRATORY, THORACIC AND MEDIASTINAL DISORDERS",,"RESPIRATORY, THORACIC AND MEDIASTINAL DISORDERS",,MILD,N,,NONE,NOT RECOVERED/NOT RESOLVED,N,N,N,N,N,N,N,TREATMENT,2013-11-05,2013-10-23,,69.0,56.0,
CDISCPILOT01,AE,01-701-1302,20.0,E30,RHINITIS,CORYZA,,RHINITIS,,HLT_0239,,HLGT_0322,,INFECTIONS AND INFESTATIONS,,INFECTIONS AND INFESTATIONS,,MILD,N,,NONE,NOT RECOVERED/NOT RESOLVED,N,N,N,N,N,N,N,TREATMENT,2013-11-05,2013-10-23,,69.0,56.0,
CDISCPILOT01,AE,01-701-1302,3.0,E26,STOMACH DISCOMFORT,STOMACH UPSET,,STOMACH DISCOMFORT,,HLT_0065,,HLGT_0183,,GASTROINTESTINAL DISORDERS,,GASTROINTESTINAL DISORDERS,,MILD,N,,POSSIBLE,NOT RECOVERED/NOT RESOLVED,N,N,N,N,N,N,N,TREATMENT,2013-09-15,2013-08-30,,18.0,2.0,
CDISCPILOT01,AE,01-701-1317,3.0,E13,APPLICATION SITE ERYTHEMA,APPLICATION SITE REDNESS,,APPLICATION SITE ERYTHEMA,,HLT_0617,,HLGT_0152,,GENERAL DISORDERS AND ADMINISTRATION SITE CONDITIONS,,GENERAL DISORDERS AND ADMINISTRATION SITE CONDITIONS,,MILD,N,,POSSIBLE,NOT RECOVERED/NOT RESOLVED,N,N,N,N,N,N,N,TREATMENT,2014-07-03,2014-06-23,,43.0,33.0,
CDISCPILOT01,AE,01-701-1317,4.0,E14,APPLICATION SITE PRURITUS,APPLICATION SITE ITCHING,,APPLICATION SITE PRURITUS,,HLT_0317,,HLGT_0338,,GENERAL DISORDERS AND ADMINISTRATION SITE CONDITIONS,,GENERAL DISORDERS AND ADMINISTRATION SITE CONDITIONS,,MILD,N,,POSSIBLE,NOT RECOVERED/NOT RESOLVED,N,N,N,N,N,N,N,TREATMENT,2014-07-03,2014-06-23,,43.0,33.0,
CDISCPILOT01,AE,01-701-1317,5.0,E15,APPLICATION SITE URTICARIA,APPLICATION SITE URTICARIA,,APPLICATION SITE URTICARIA,,HLT_0196,,HLGT_0233,,GENERAL DISORDERS AND ADMINISTRATION SITE CONDITIONS,,GENERAL DISORDERS AND ADMINISTRATION SITE CONDITIONS,,MILD,N,,POSSIBLE,NOT RECOVERED/NOT RESOLVED,N,N,N,N,N,N,N,TREATMENT,2014-07-03,2014-06-23,,43.0,33.0,
CDISCPILOT01,AE,01-701-1317,2.0,E12,CYST,CYST,,CYST,,HLT_0763,,HLGT_0341,,GENERAL DISORDERS AND ADMINISTRATION SITE CONDITIONS,,GENERAL DISORDERS AND ADMINISTRATION SITE CONDITIONS,,MILD,N,,NONE,NOT RECOVERED/NOT RESOLVED,N,N,N,N,N,N,N,SCREENING,2014-05-20,2014-05-13,,-2.0,-9.0,
CDISCPILOT01,AE,01-701-1317,6.0,E16,DEPRESSED MOOD,DEPRESSED MOOD,,DEPRESSED MOOD,,HLT_0784,,HLGT_0122,,PSYCHIATRIC DISORDERS,,PSYCHIATRIC DISORDERS,,MILD,N,,POSSIBLE,NOT RECOVERED/NOT RESOLVED,N,N,N,N,N,N,N,TREATMENT,2014-07-22,2014-07-04,,62.0,44.0,
CDISCPILOT01,AE,01-701-1317,7.0,E16,DEPRESSED MOOD,DEPRESSED MOOD,,DEPRESSED MOOD,,HLT_0784,,HLGT_0122,,PSYCHIATRIC DISORDERS,,PSYCHIATRIC DISORDERS,,MODERATE,N,,POSSIBLE,NOT RECOVERED/NOT RESOLVED,N,N,N,N,N,N,N,TREATMENT,2014-10-09,2014-07-04,,141.0,44.0,
CDISCPILOT01,AE,01-701-1317,9.0,E18,DYSPHONIA,HOARSENESS,,DYSPHONIA,,HLT_0073,,HLGT_0274,,"RESPIRATORY, THORACIC AND MEDIASTINAL DISORDERS",,"RESPIRATORY, THORACIC AND MEDIASTINAL DISORDERS",,MILD,N,,REMOTE,NOT RECOVERED/NOT RESOLVED,N,N,N,N,N,N,N,TREATMENT,2014-11-06,2014-11-03,,169.0,166.0,
CDISCPILOT01,AE,01-701-1317,8.0,E17,FATIGUE,TIREDNESS,,FATIGUE,,HLT_0043,,HLGT_0181,,GENERAL DISORDERS AND ADMINISTRATION SITE CONDITIONS,,GENERAL DISORDERS AND ADMINISTRATION SITE CONDITIONS,,MILD,N,,REMOTE,NOT RECOVERED/NOT RESOLVED,N,N,N,N,N,N,N,TREATMENT,2014-10-09,2014-09-12,,141.0,114.0,
CDISCPILOT01,AE,01-701-1317,1.0,E11,ONYCHOMYCOSIS,ONYCHOMYCOSIS,,ONYCHOMYCOSIS,,HLT_0275,,HLGT_0243,,INFECTIONS AND INFESTATIONS,,INFECTIONS AND INFESTATIONS,,MILD,N,,NONE,NOT RECOVERED/NOT RESOLVED,N,N,N,N,N,N,N,SCREENING,2014-05-20,2014-05-13,,-2.0,-9.0,
CDISCPILOT01,AE,01-701-1324,1.0,E04,APPLICATION SITE ERYTHEMA,APPLICATION SITE ERYTHEMA,,APPLICATION SITE ERYTHEMA,,HLT_0617,,HLGT_0152,,GENERAL DISORDERS AND ADMINISTRATION SITE CONDITIONS,,GENERAL DISORDERS AND ADMINISTRATION SITE CONDITIONS,,MILD,N,,PROBABLE,NOT RECOVERED/NOT RESOLVED,N,N,N,N,N,N,N,TREATMENT,2012-10-30,2012-10-22,,29.0,21.0,
CDISCPILOT01,AE,01-701-1324,2.0,E06,APPLICATION SITE PRURITUS,APPLICATION SITE ITCHING,,APPLICATION SITE PRURITUS,,HLT_0317,,HLGT_0338,,GENERAL DISORDERS AND ADMINISTRATION SITE CONDITIONS,,GENERAL DISORDERS AND ADMINISTRATION SITE CONDITIONS,,MILD,N,,PROBABLE,NOT RECOVERED/NOT RESOLVED,N,N,N,N,N,N,N,TREATMENT,2012-12-25,2012-12-02,,85.0,62.0,
CDISCPILOT01,AE,01-701-1324,4.0,E05,APPLICATION SITE VESICLES,APPLICATION SITE BLISTER,,APPLICATION SITE VESICLES,,HLT_0180,,HLGT_0576,,GENERAL DISORDERS AND ADMINISTRATION SITE CONDITIONS,,GENERAL DISORDERS AND ADMINISTRATION SITE CONDITIONS,,MILD,N,,PROBABLE,RECOVERED/RESOLVED,N,N,N,N,N,N,N,TREATMENT,2013-01-22,2012-12-25,2013-01-16,113.0,85.0,107.0
CDISCPILOT01,AE,01-701-1341,2.0,E10,APPLICATION SITE ERYTHEMA,APPLICATION SITE REDNESS,,APPLICATION SITE ERYTHEMA,,HLT_0617,,HLGT_0152,,GENERAL DISORDERS AND ADMINISTRATION SITE CONDITIONS,,GENERAL DISORDERS AND ADMINISTRATION SITE CONDITIONS,,MODERATE,N,,PROBABLE,NOT RECOVERED/NOT RESOLVED,N,N,N,N,N,N,N,TREATMENT,2013-02-07,2013-01-19,,34.0,15.0,
CDISCPILOT01,AE,01-701-1341,4.0,E12,APPLICATION SITE ERYTHEMA,APPLICATION SITE REDNESS,,APPLICATION SITE ERYTHEMA,,HLT_0617,,HLGT_0152,,GENERAL DISORDERS AND ADMINISTRATION SITE CONDITIONS,,GENERAL DISORDERS AND ADMINISTRATION SITE CONDITIONS,,MODERATE,N,,PROBABLE,NOT RECOVERED/NOT RESOLVED,N,N,N,N,N,N,N,TREATMENT,2013-02-07,2013-01-26,,34.0,22.0,
CDISCPILOT01,AE,01-701-1341,5.0,E13,APPLICATION SITE IRRITATION,APPLICATION SITE BURNING,,APPLICATION SITE IRRITATION,,HLT_0061,,HLGT_0346,,GENERAL DISORDERS AND ADMINISTRATION SITE CONDITIONS,,GENERAL DISORDERS AND ADMINISTRATION SITE CONDITIONS,,MODERATE,N,,PROBABLE,RECOVERED/RESOLVED,N,N,N,N,N,N,N,TREATMENT,2013-02-07,2013-01-26,2013-01-30,34.0,22.0,26.0
CDISCPILOT01,AE,01-701-1341,1.0,E09,APPLICATION SITE PRURITUS,APPLICATION SITE ITCHING,,APPLICATION SITE PRURITUS,,HLT_0317,,HLGT_0338,,GENERAL DISORDERS AND ADMINISTRATION SITE CONDITIONS,,GENERAL DISORDERS AND ADMINISTRATION SITE CONDITIONS,,MODERATE,N,,PROBABLE,NOT RECOVERED/NOT RESOLVED,N,N,N,N,N,N,N,TREATMENT,2013-02-07,2013-01-19,,34.0,15.0,
CDISCPILOT01,AE,01-701-1341,3.0,E11,APPLICATION SITE PRURITUS,APPLICATION SITE ITCHING,,APPLICATION SITE PRURITUS,,HLT_0317,,HLGT_0338,,GENERAL DISORDERS AND ADMINISTRATION SITE CONDITIONS,,GENERAL DISORDERS AND ADMINISTRATION SITE CONDITIONS,,MODERATE,N,,PROBABLE,RECOVERED/RESOLVED,N,N,N,N,N,N,N,TREATMENT,2013-02-07,2013-01-26,2013-01-30,34.0,22.0,26.0
CDISCPILOT01,AE,01-701-1360,1.0,E08,APPLICATION SITE ERYTHEMA,APPLICATION SITE ERYTHEMA,,APPLICATION SITE ERYTHEMA,,HLT_0617,,HLGT_0152,,GENERAL DISORDERS AND ADMINISTRATION SITE CONDITIONS,,GENERAL DISORDERS AND ADMINISTRATION SITE CONDITIONS,,MODERATE,N,,PROBABLE,NOT RECOVERED/NOT RESOLVED,N,N,N,N,N,N,N,TREATMENT,2013-08-14,2013-08-02,,15.0,3.0,
CDISCPILOT01,AE,01-701-1360,2.0,E09,APPLICATION SITE PRURITUS,APPLICATION SITE ITCHING,,APPLICATION SITE PRURITUS,,HLT_0317,,HLGT_0338,,GENERAL DISORDERS AND ADMINISTRATION SITE CONDITIONS,,GENERAL DISORDERS AND ADMINISTRATION SITE CONDITIONS,,MODERATE,N,,PROBABLE,NOT RECOVERED/NOT RESOLVED,N,N,N,N,N,N,N,TREATMENT,2013-08-14,2013-08-02,,15.0,3.0,
CDISCPILOT01,AE,01-701-1360,3.0,E10,APPLICATION SITE VESICLES,APPLICATION SITE BLISTER,,APPLICATION SITE VESICLES,,HLT_0180,,HLGT_0576,,GENERAL DISORDERS AND ADMINISTRATION SITE CONDITIONS,,GENERAL DISORDERS AND ADMINISTRATION SITE CONDITIONS,,MODERATE,N,,PROBABLE,NOT RECOVERED/NOT RESOLVED,N,N,N,N,N,N,N,TREATMENT,2013-08-14,2013-08-05,,15.0,6.0,
CDISCPILOT01,AE,01-701-1363,3.0,E11,APPLICATION SITE PRURITUS,APPLICATION SITE ITCHING,,APPLICATION SITE PRURITUS,,HLT_0317,,HLGT_0338,,GENERAL DISORDERS AND ADMINISTRATION SITE CONDITIONS,,GENERAL DISORDERS AND ADMINISTRATION SITE CONDITIONS,,MILD,N,,PROBABLE,NOT RECOVERED/NOT RESOLVED,N,N,N,N,N,N,N,TREATMENT,2013-07-24,2013-07-16,,56.0,48.0,
CDISCPILOT01,AE,01-701-1363,6.0,E13,BACK PAIN,BACKACHE,,BACK PAIN,,HLT_0115,,HLGT_0508,,MUSCULOSKELETAL AND CONNECTIVE TISSUE DISORDERS,,MUSCULOSKELETAL AND CONNECTIVE TISSUE DISORDERS,,MILD,N,,NONE,RECOVERED/RESOLVED,N,N,N,N,N,N,N,TREATMENT,2013-11-13,2013-10-13,2013-10-15,168.0,137.0,139.0
CDISCPILOT01,AE,01-701-1363,2.0,E03,HEADACHE,HEADACHE,,HEADACHE,,HLT_0064,,HLGT_0344,,NERVOUS SYSTEM DISORDERS,,NERVOUS SYSTEM DISORDERS,,MODERATE,N,,POSSIBLE,NOT RECOVERED/NOT RESOLVED,N,N,N,N,N,N,N,SCREENING,2013-07-24,1986,,56.0,,
CDISCPILOT01,AE,01-701-1363,4.0,E03,HEADACHE,HEADACHE,,HEADACHE,,HLT_0064,,HLGT_0344,,NERVOUS SYSTEM DISORDERS,,NERVOUS SYSTEM DISORDERS,,MILD,N,,POSSIBLE,NOT RECOVERED/NOT RESOLVED,N,N,N,N,N,N,N,SCREENING,2013-10-14,1986,,138.0,,
CDISCPILOT01,AE,01-701-1363,1.0,E09,NAUSEA,NAUSEA,,NAUSEA,,HLT_0742,,HLGT_0326,,GASTROINTESTINAL DISORDERS,,GASTROINTESTINAL DISORDERS,,MILD,N,,REMOTE,RECOVERED/RESOLVED,N,N,N,N,N,N,N,TREATMENT,2013-06-25,2013-06-14,2013-06-15,27.0,16.0,17.0
CDISCPILOT01,AE,01-701-1383,3.0,E06,APPLICATION SITE ERYTHEMA,APPLICATION SITE ERYTHEMA,,APPLICATION SITE ERYTHEMA,,HLT_0617,,HLGT_0152,,GENERAL DISORDERS AND ADMINISTRATION SITE CONDITIONS,,GENERAL DISORDERS AND ADMINISTRATION SITE CONDITIONS,,MILD,N,,POSSIBLE,RECOVERED/RESOLVED,N,N,N,N,N,N,N,TREATMENT,2013-04-02,2013-03-23,2013-03-26,58.0,48.0,51.0
CDISCPILOT01,AE,01-701-1383,5.0,E08,APPLICATION SITE ERYTHEMA,APPLICATION SITE ERYTHEMA,,APPLICATION SITE ERYTHEMA,,HLT_0617,,HLGT_0152,,GENERAL DISORDERS AND ADMINISTRATION SITE CONDITIONS,,GENERAL DISORDERS AND ADMINISTRATION SITE CONDITIONS,,MILD,N,,POSSIBLE,NOT RECOVERED/NOT RESOLVED,N,N,N,N,N,N,N,TREATMENT,2013-04-30,2013-04-12,,86.0,68.0,
CDISCPILOT01,AE,01-701-1383,6.0,E09,APPLICATION SITE IRRITATION,APPLICATION SITE BURNING,,APPLICATION SITE IRRITATION,,HLT_0061,,HLGT_0346,,GENERAL DISORDERS AND ADMINISTRATION SITE CONDITIONS,,GENERAL DISORDERS AND ADMINISTRATION SITE CONDITIONS,,MILD,N,,POSSIBLE,NOT RECOVERED/NOT RESOLVED,N,N,N,N,N,N,N,TREATMENT,2013-04-30,2013-04-12,,86.0,68.0,
CDISCPILOT01,AE,01-701-1383,8.0,E09,APPLICATION SITE IRRITATION,APPLICATION SITE BURNING,,APPLICATION SITE IRRITATION,,HLT_0061,,HLGT_0346,,GENERAL DISORDERS AND ADMINISTRATION SITE CONDITIONS,,GENERAL DISORDERS AND ADMINISTRATION SITE CONDITIONS,,MODERATE,N,,POSSIBLE,NOT RECOVERED/NOT RESOLVED,N,N,N,N,N,N,N,TREATMENT,2013-05-30,2013-04-12,,116.0,68.0,
CDISCPILOT01,AE,01-701-1383,2.0,E05,APPLICATION SITE PAIN,APPLICATION SITE PAIN,,APPLICATION SITE PAIN,,HLT_0342,,HLGT_0085,,GENERAL DISORDERS AND ADMINISTRATION SITE CONDITIONS,,GENERAL DISORDERS AND ADMINISTRATION SITE CONDITIONS,,MILD,N,,PROBABLE,RECOVERED/RESOLVED,N,N,N,N,N,N,N,TREATMENT,2013-02-19,2013-02-07,2013-02-07,16.0,4.0,4.0
CDISCPILOT01,AE,01-701-1383,1.0,E04,APPLICATION SITE PRURITUS,APPLICATION SITE ITCHING,,APPLICATION SITE PRURITUS,,HLT_0317,,HLGT_0338,,GENERAL DISORDERS AND ADMINISTRATION SITE CONDITIONS,,GENERAL DISORDERS AND ADMINISTRATION SITE CONDITIONS,,MILD,N,,PROBABLE,RECOVERED/RESOLVED,N,N,N,N,N,N,N,TREATMENT,2013-02-19,2013-02-07,2013-02-07,16.0,4.0,4.0
CDISCPILOT01,AE,01-701-1383,4.0,E07,APPLICATION SITE PRURITUS,APPLICATION SITE ITCHING,,APPLICATION SITE PRURITUS,,HLT_0317,,HLGT_0338,,GENERAL DISORDERS AND ADMINISTRATION SITE CONDITIONS,,GENERAL DISORDERS AND ADMINISTRATION SITE CONDITIONS,,MILD,N,,POSSIBLE,NOT RECOVERED/NOT RESOLVED,N,N,N,N,N,N,N,TREATMENT,2013-04-02,2013-03-23,,58.0,48.0,
CDISCPILOT01,AE,01-701-1383,7.0,E07,APPLICATION SITE PRURITUS,APPLICATION SITE ITCHING,,APPLICATION SITE PRURITUS,,HLT_0317,,HLGT_0338,,GENERAL DISORDERS AND ADMINISTRATION SITE CONDITIONS,,GENERAL DISORDERS AND ADMINISTRATION SITE CONDITIONS,,MODERATE,N,,POSSIBLE,NOT RECOVERED/NOT RESOLVED,N,N,N,N,N,N,N,TREATMENT,2013-05-30,2013-03-23,,116.0,48.0,
CDISCPILOT01,AE,01-701-1383,9.0,E10,APPLICATION SITE VESICLES,APPLICATION SITE BLISTER,,APPLICATION SITE VESICLES,,HLT_0180,,HLGT_0576,,GENERAL DISORDERS AND ADMINISTRATION SITE CONDITIONS,,GENERAL DISORDERS AND ADMINISTRATION SITE CONDITIONS,,MILD,N,,POSSIBLE,RECOVERED/RESOLVED,N,N,N,N,N,N,N,TREATMENT,2013-05-30,2013-05-07,2013-05-24,116.0,93.0,110.0
CDISCPILOT01,AE,01-701-1383,10.0,E11,CHEST DISCOMFORT,CHEST PRESSURE,,CHEST DISCOMFORT,,HLT_0593,,HLGT_0441,,GENERAL DISORDERS AND ADMINISTRATION SITE CONDITIONS,,GENERAL DISORDERS AND ADMINISTRATION SITE CONDITIONS,,MILD,N,,NONE,RECOVERED/RESOLVED,N,N,N,N,N,N,N,TREATMENT,2013-06-25,2013-06-24,2013-06-24,142.0,141.0,141.0
CDISCPILOT01,AE,01-701-1383,12.0,E13,COUGH,COUGH,,COUGH,,HLT_0701,,HLGT_0280,,"RESPIRATORY, THORACIC AND MEDIASTINAL DISORDERS",,"RESPIRATORY, THORACIC AND MEDIASTINAL DISORDERS",,MODERATE,N,,NONE,RECOVERED/RESOLVED,N,N,N,N,N,N,N,TREATMENT,2013-07-30,2013-07-17,2013-07-26,177.0,164.0,173.0
CDISCPILOT01,AE,01-701-1383,11.0,E12,HEADACHE,FULLNESS HEAD,,HEADACHE,,HLT_0064,,HLGT_0344,,NERVOUS SYSTEM DISORDERS,,NERVOUS SYSTEM DISORDERS,,MILD,N,,NONE,RECOVERED/RESOLVED,N,N,N,N,N,N,N,TREATMENT,2013-06-25,2013-06-24,2013-06-24,142.0,141.0,141.0
CDISCPILOT01,AE,01-701-1387,1.0,E08,DIARRHOEA,DIARRHEA,,DIARRHOEA,,HLT_0148,,HLGT_0588,,GASTROINTESTINAL DISORDERS,,GASTROINTESTINAL DISORDERS,,MILD,N,,REMOTE,RECOVERED/RESOLVED,N,N,N,N,N,N,N,TREATMENT,2014-03-25,2014-03-18,2014-03-18,14.0,7.0,7.0
CDISCPILOT01,AE,01-701-1387,2.0,E09,HYPERHIDROSIS,SWEATING,,HYPERHIDROSIS,,HLT_0587,,HLGT_0005,,SKIN AND SUBCUTANEOUS TISSUE DISORDERS,,SKIN AND SUBCUTANEOUS TISSUE DISORDERS,,MILD,N,,REMOTE,RECOVERED/RESOLVED,N,N,N,N,N,N,N,TREATMENT,2014-03-25,2014-03-18,2014-03-18,14.0,7.0,7.0
CDISCPILOT01,AE,01-701-1392,2.0,E04,UPPER RESPIRATORY TRACT INFECTION,UPPER RESPIRATORY INFECTION,,UPPER RESPIRATORY TRACT INFECTION,,HLT_0520,,HLGT_0489,,INFECTIONS AND INFESTATIONS,,INFECTIONS AND INFESTATIONS,,MILD,N,,REMOTE,RECOVERED/RESOLVED,N,N,N,N,N,N,N,TREATMENT,2013-04-15,2013-03-16,2013-03-21,170.0,140.0,145.0
CDISCPILOT01,AE,01-701-1415,6.0,E12,DIARRHOEA,DIARRHEA,,DIARRHOEA,,HLT_0148,,HLGT_0588,,GASTROINTESTINAL DISORDERS,,GASTROINTESTINAL DISORDERS,,MILD,N,,NONE,RECOVERED/RESOLVED,N,N,N,N,N,N,N,TREATMENT,2014-03-10,2014-03-09,2014-03-09,169.0,168.0,168.0
CDISCPILOT01,AE,01-701-1415,3.0,E10,MICTURITION URGENCY,URINARY URGENCY,,MICTURITION URGENCY,,HLT_0294,,HLGT_0483,,RENAL AND URINARY DISORDERS,,RENAL AND URINARY DISORDERS,,MILD,N,,NONE,NOT RECOVERED/NOT RESOLVED,N,N,N,N,N,N,N,TREATMENT,2013-12-21,2013-12-02,,90.0,71.0,
CDISCPILOT01,AE,01-701-1415,2.0,E09,UPPER RESPIRATORY TRACT INFECTION,UPPER RESPIRATORY INFECTION,,UPPER RESPIRATORY TRACT INFECTION,,HLT_0520,,HLGT_0489,,INFECTIONS AND INFESTATIONS,,INFECTIONS AND INFESTATIONS,,MILD,N,,NONE,RECOVERED/RESOLVED,N,N,N,N,N,N,N,TREATMENT,2013-11-21,2013-10-21,2013-11-04,60.0,29.0,43.0
CDISCPILOT01,AE,01-701-1415,5.0,E11,UPPER RESPIRATORY TRACT INFECTION,UPPER RESPIRATORY INFECTION,,UPPER RESPIRATORY TRACT INFECTION,,HLT_0520,,HLGT_0489,,INFECTIONS AND INFESTATIONS,,INFECTIONS AND INFESTATIONS,,MILD,N,,REMOTE,RECOVERED/RESOLVED,N,N,N,N,N,N,N,TREATMENT,2014-03-10,2014-01-21,2014-02-10,169.0,121.0,141.0
CDISCPILOT01,AE,01-701-1442,1.0,E03,APPLICATION SITE PRURITUS,APPLICATION SITE ITCHING,,APPLICATION SITE PRURITUS,,HLT_0317,,HLGT_0338,,GENERAL DISORDERS AND ADMINISTRATION SITE CONDITIONS,,GENERAL DISORDERS AND ADMINISTRATION SITE CONDITIONS,,MILD,N,,PROBABLE,NOT RECOVERED/NOT RESOLVED,N,N,N,N,N,N,N,TREATMENT,2014-01-18,2014-01-10,,85.0,77.0,
CDISCPILOT01,AE,01-701-1444,1.0,E11,APPLICATION SITE ERYTHEMA,APPLICATION SITE ERYTHEMA,,APPLICATION SITE ERYTHEMA,,HLT_0617,,HLGT_0152,,GENERAL DISORDERS AND ADMINISTRATION SITE CONDITIONS,,GENERAL DISORDERS AND ADMINISTRATION SITE CONDITIONS,,MILD,N,,POSSIBLE,NOT RECOVERED/NOT RESOLVED,N,N,N,N,N,N,N,TREATMENT,2013-01-31,2013-01-19,,27.0,15.0,
CDISCPILOT01,AE,01-701-1444,4.0,E11,APPLICATION SITE ERYTHEMA,APPLICATION SITE ERYTHEMA,,APPLICATION SITE ERYTHEMA,,HLT_0617,,HLGT_0152,,GENERAL DISORDERS AND ADMINISTRATION SITE CONDITIONS,,GENERAL DISORDERS AND ADMINISTRATION SITE CONDITIONS,,MODERATE,N,,POSSIBLE,NOT RECOVERED/NOT RESOLVED,N,N,N,N,N,N,N,TREATMENT,2013-02-13,2013-01-19,,40.0,15.0,
CDISCPILOT01,AE,01-701-1444,6.0,E15,APPLICATION SITE IRRITATION,APPLICATION SITE BURNING,,APPLICATION SITE IRRITATION,,HLT_0061,,HLGT_0346,,GENERAL DISORDERS AND ADMINISTRATION SITE CONDITIONS,,GENERAL DISORDERS AND ADMINISTRATION SITE CONDITIONS,,MODERATE,N,,PROBABLE,NOT RECOVERED/NOT RESOLVED,N,N,N,N,N,N,N,TREATMENT,2013-02-13,2013-02-04,,40.0,31.0,
CDISCPILOT01,AE,01-701-1444,2.0,E12,APPLICATION SITE PRURITUS,APPLICATION SITE ITCHING,,APPLICATION SITE PRURITUS,,HLT_0317,,HLGT_0338,,GENERAL DISORDERS AND ADMINISTRATION SITE CONDITIONS,,GENERAL DISORDERS AND ADMINISTRATION SITE CONDITIONS,,MILD,N,,PROBABLE,NOT RECOVERED/NOT RESOLVED,N,N,N,N,N,N,N,TREATMENT,2013-01-31,2013-01-19,,27.0,15.0,
CDISCPILOT01,AE,01-701-1444,5.0,E12,APPLICATION SITE PRURITUS,APPLICATION SITE ITCHING,,APPLICATION SITE PRURITUS,,HLT_0317,,HLGT_0338,,GENERAL DISORDERS AND ADMINISTRATION SITE CONDITIONS,,GENERAL DISORDERS AND ADMINISTRATION SITE CONDITIONS,,MODERATE,N,,PROBABLE,NOT RECOVERED/NOT RESOLVED,N,N,N,N,N,N,N,TREATMENT,2013-02-13,2013-01-19,,40.0,15.0,
CDISCPILOT01,AE,01-701-1444,7.0,E16,APPLICATION SITE VESICLES,APPLICATION SITE BLISTER,,APPLICATION SITE VESICLES,,HLT_0180,,HLGT_0576,,GENERAL DISORDERS AND ADMINISTRATION SITE CONDITIONS,,GENERAL DISORDERS AND ADMINISTRATION SITE CONDITIONS,,MODERATE,N,,PROBABLE,NOT RECOVERED/NOT RESOLVED,N,N,N,N,N,N,N,TREATMENT,2013-02-13,2013-02-04,,40.0,31.0,
CDISCPILOT01,AE,01-701-1444,8.0,E14,PARAESTHESIA,TINGLING,,PARAESTHESIA,,HLT_0481,,HLGT_0534,,NERVOUS SYSTEM DISORDERS,,NERVOUS SYSTEM DISORDERS,,MILD,N,,NONE,RECOVERED/RESOLVED,N,N,N,N,N,N,N,TREATMENT,2013-02-13,2013-02-08,2013-02-08,40.0,35.0,35.0
CDISCPILOT01,AE,01-701-1444,3.0,E13,SALIVARY HYPERSECRETION,HYPERSALIVATION,,SALIVARY HYPERSECRETION,,HLT_0374,,HLGT_0488,,GASTROINTESTINAL DISORDERS,,GASTROINTESTINAL DISORDERS,,MILD,N,,POSSIBLE,NOT RECOVERED/NOT RESOLVED,N,N,N,N,N,N,N,TREATMENT,2013-01-31,2013-01-19,,27.0,15.0,
CDISCPILOT01,AE,01-702-1082,9.0,E07,APPLICATION SITE IRRITATION,APPLICATION SITE IRRITATION,,APPLICATION SITE IRRITATION,,HLT_0061,,HLGT_0346,,GENERAL DISORDERS AND ADMINISTRATION SITE CONDITIONS,,GENERAL DISORDERS AND ADMINISTRATION SITE CONDITIONS,,MILD,N,,PROBABLE,RECOVERED/RESOLVED,N,N,N,N,N,N,N,TREATMENT,2013-09-28,2013-09-09,2013-09-24,65.0,46.0,61.0
CDISCPILOT01,AE,01-702-1082,6.0,E03,NEUTROPHIL COUNT INCREASED,NEUTROPHIL COUNT INCREASED,,NEUTROPHIL COUNT INCREASED,,HLT_0326,,HLGT_0625,,INVESTIGATIONS,,INVESTIGATIONS,,MILD,N,,NONE,RECOVERED/RESOLVED,N,N,N,N,N,N,N,SCREENING,2013-08-08,2013-07-07,2013-07-26,14.0,-19.0,1.0
CDISCPILOT01,AE,01-702-1082,8.0,E06,RECTAL HAEMORRHAGE,RECTAL BLEEDING,,RECTAL HAEMORRHAGE,,HLT_0353,,HLGT_0755,,GASTROINTESTINAL DISORDERS,,GASTROINTESTINAL DISORDERS,,MILD,N,,NONE,RECOVERED/RESOLVED,N,N,N,N,N,N,N,TREATMENT,2013-09-28,2013-09-02,2013-09-06,65.0,39.0,43.0
CDISCPILOT01,AE,01-702-1082,10.0,E08,SKIN IRRITATION,SKIN IRRITATION,,SKIN IRRITATION,,HLT_0583,,HLGT_0384,,SKIN AND SUBCUTANEOUS TISSUE DISORDERS,,SKIN AND SUBCUTANEOUS TISSUE DISORDERS,,MODERATE,N,,PROBABLE,RECOVERED/RESOLVED,N,N,N,N,N,N,N,TREATMENT,2013-11-17,2013-10-12,2013-10-31,115.0,79.0,98.0
CDISCPILOT01,AE,01-702-1082,4.0,E04,URINE ANALYSIS ABNORMAL,URINE ANALYSIS ABNORMAL,,URINE ANALYSIS ABNORMAL,,HLT_0783,,HLGT_0295,,INVESTIGATIONS,,INVESTIGATIONS,,MILD,N,,NONE,RECOVERED/RESOLVED,N,N,N,N,N,N,N,SCREENING,2013-07-26,2013-07-07,2013-07-24,1.0,-19.0,-2.0
CDISCPILOT01,AE,01-702-1082,5.0,E02,WHITE BLOOD CELL COUNT INCREASED,WBC INCREASED,,WHITE BLOOD CELL COUNT INCREASED,,HLT_0417,,HLGT_0465,,INVESTIGATIONS,,INVESTIGATIONS,,MILD,N,,NONE,RECOVERED/RESOLVED,N,N,N,N,N,N,N,SCREENING,2013-08-08,2013-07-07,2013-07-26,14.0,-19.0,1.0
CDISCPILOT01,AE,01-703-1042,1.0,E04,DIARRHOEA,DIARRHEA,,DIARRHOEA,,HLT_0148,,HLGT_0588,,GASTROINTESTINAL DISORDERS,,GASTROINTESTINAL DISORDERS,,MILD,N,,POSSIBLE,RECOVERED/RESOLVED,N,N,N,N,N,N,N,TREATMENT,2013-03-14,2013-03-04,2013-03-05,13.0,3.0,4.0
CDISCPILOT01,AE,01-703-1042,2.0,E05,INSOMNIA,INSOMNIA,,INSOMNIA,,HLT_0297,,HLGT_0469,,PSYCHIATRIC DISORDERS,,PSYCHIATRIC DISORDERS,,MILD,N,,REMOTE,RECOVERED/RESOLVED,N,N,N,N,N,N,N,TREATMENT,2013-03-14,2013-03-05,2013-03-06,13.0,4.0,5.0
CDISCPILOT01,AE,01-703-1076,5.0,E09,APPLICATION SITE DERMATITIS,APPLICATION SITE RASH,,APPLICATION SITE DERMATITIS,,HLT_0343,,HLGT_0241,,GENERAL DISORDERS AND ADMINISTRATION SITE CONDITIONS,,GENERAL DISORDERS AND ADMINISTRATION SITE CONDITIONS,,MILD,N,,PROBABLE,NOT RECOVERED/NOT RESOLVED,N,N,N,N,N,N,N,TREATMENT,2013-12-04,2013-11-23,,41.0,30.0,
CDISCPILOT01,AE,01-703-1076,4.0,E08,APPLICATION SITE PRURITUS,APPLICATION SITE ITCHING,,APPLICATION SITE PRURITUS,,HLT_0317,,HLGT_0338,,GENERAL DISORDERS AND ADMINISTRATION SITE CONDITIONS,,GENERAL DISORDERS AND ADMINISTRATION SITE CONDITIONS,,MILD,N,,PROBABLE,NOT RECOVERED/NOT RESOLVED,N,N,N,N,N,N,N,TREATMENT,2013-12-04,2013-11-23,,41.0,30.0,
CDISCPILOT01,AE,01-703-1076,7.0,E08,APPLICATION SITE PRURITUS,APPLICATION SITE ITCHING,,APPLICATION SITE PRURITUS,,HLT_0317,,HLGT_0338,,GENERAL DISORDERS AND ADMINISTRATION SITE CONDITIONS,,GENERAL DISORDERS AND ADMINISTRATION SITE CONDITIONS,,MODERATE,N,,PROBABLE,NOT RECOVERED/NOT RESOLVED,N,N,N,N,N,N,N,TREATMENT,2013-12-17,2013-11-23,,54.0,30.0,
CDISCPILOT01,AE,01-703-1076,2.0,E01,BENIGN PROSTATIC HYPERPLASIA,BENIGN PROSTATIC HYPERTROPHY,,BENIGN PROSTATIC HYPERPLASIA,,HLT_0215,,HLGT_0568,,REPRODUCTIVE SYSTEM AND BREAST DISORDERS,,REPRODUCTIVE SYSTEM AND BREAST DISORDERS,,MODERATE,N,,NONE,NOT RECOVERED/NOT RESOLVED,N,N,N,N,N,N,N,TREATMENT,2013-11-20,2013-11-20,,27.0,27.0,
CDISCPILOT01,AE,01-703-1076,1.0,E02,BIOPSY PROSTATE,BIOPSY OF PROSTATE,,BIOPSY PROSTATE,,HLT_0553,,HLGT_0725,,INVESTIGATIONS,,INVESTIGATIONS,,MODERATE,N,,NONE,RECOVERED/RESOLVED,N,N,N,N,N,N,N,TREATMENT,2013-11-20,2013-11-16,2013-11-16,27.0,23.0,23.0
CDISCPILOT01,AE,01-703-1076,3.0,E05,HYPERCHOLESTEROLAEMIA,HYPERCHOLESTEROLEMIA,,HYPERCHOLESTEROLAEMIA,,HLT_0025,,HLGT_0703,,METABOLISM AND NUTRITION DISORDERS,,METABOLISM AND NUTRITION DISORDERS,,MODERATE,N,,NONE,NOT RECOVERED/NOT RESOLVED,N,N,N,N,N,N,N,SCREENING,2013-12-04,2007,,41.0,,
CDISCPILOT01,AE,01-703-1076,6.0,E07,HYPERHIDROSIS,SWEATING,,HYPERHIDROSIS,,HLT_0587,,HLGT_0005,,SKIN AND SUBCUTANEOUS TISSUE DISORDERS,,SKIN AND SUBCUTANEOUS TISSUE DISORDERS,,MILD,N,,POSSIBLE,NOT RECOVERED/NOT RESOLVED,N,N,N,N,N,N,N,TREATMENT,2013-12-04,2013-11-25,,41.0,32.0,
CDISCPILOT01,AE,01-703-1086,2.0,E01,APPLICATION SITE IRRITATION,APPLICATION SITE IRRITATION,,APPLICATION SITE IRRITATION,,HLT_0061,,HLGT_0346,,GENERAL DISORDERS AND ADMINISTRATION SITE CONDITIONS,,GENERAL DISORDERS AND ADMINISTRATION SITE CONDITIONS,,MODERATE,N,,PROBABLE,NOT RECOVERED/NOT RESOLVED,N,N,N,N,N,N,N,TREATMENT,2012-09-30,2012-09-13,2013-01-02,29.0,12.0,123.0
CDISCPILOT01,AE,01-703-1086,3.0,E01,APPLICATION SITE IRRITATION,APPLICATION SITE IRRITATION,,APPLICATION SITE IRRITATION,,HLT_0061,,HLGT_0346,,GENERAL DISORDERS AND ADMINISTRATION SITE CONDITIONS,,GENERAL DISORDERS AND ADMINISTRATION SITE CONDITIONS,,SEVERE,N,,PROBABLE,NOT RECOVERED/NOT RESOLVED,N,N,N,N,N,N,N,TREATMENT,2012-10-13,2012-09-13,2013-01-02,42.0,12.0,123.0
CDISCPILOT01,AE,01-703-1086,6.0,E01,APPLICATION SITE IRRITATION,APPLICATION SITE IRRITATION,,APPLICATION SITE IRRITATION,,HLT_0061,,HLGT_0346,,GENERAL DISORDERS AND ADMINISTRATION SITE CONDITIONS,,GENERAL DISORDERS AND ADMINISTRATION SITE CONDITIONS,,MILD,N,,PROBABLE,RECOVERED/RESOLVED,N,N,N,N,N,N,N,TREATMENT,2013-03-26,2012-09-13,2013-01-02,206.0,12.0,123.0
CDISCPILOT01,AE,01-703-1086,5.0,E02,CHILLS,CHILLS,,CHILLS,,HLT_0586,,HLGT_0161,,GENERAL DISORDERS AND ADMINISTRATION SITE CONDITIONS,,GENERAL DISORDERS AND ADMINISTRATION SITE CONDITIONS,,MILD,N,,POSSIBLE,RECOVERED/RESOLVED,N,N,N,N,N,N,N,TREATMENT,2012-10-27,2012-10-09,2012-10-15,56.0,38.0,44.0
CDISCPILOT01,AE,01-703-1100,1.0,E04,APPLICATION SITE IRRITATION,APPLICATION SITE IRRITATION,,APPLICATION SITE IRRITATION,,HLT_0061,,HLGT_0346,,GENERAL DISORDERS AND ADMINISTRATION SITE CONDITIONS,,GENERAL DISORDERS AND ADMINISTRATION SITE CONDITIONS,,MODERATE,N,,PROBABLE,NOT RECOVERED/NOT RESOLVED,N,N,N,N,N,N,N,TREATMENT,2013-04-12,2013-04-05,2013-04-16,31.0,24.0,35.0
CDISCPILOT01,AE,01-703-1100,3.0,E04,APPLICATION SITE IRRITATION,APPLICATION SITE IRRITATION,,APPLICATION SITE IRRITATION,,HLT_0061,,HLGT_0346,,GENERAL DISORDERS AND ADMINISTRATION SITE CONDITIONS,,GENERAL DISORDERS AND ADMINISTRATION SITE CONDITIONS,,MILD,N,,PROBABLE,RECOVERED/RESOLVED,N,N,N,N,N,N,N,TREATMENT,2013-04-24,2013-04-05,2013-04-16,43.0,24.0,35.0
CDISCPILOT01,AE,01-703-1100,4.0,E06,CATARACT OPERATION,CATARACT EXTRACTION,,CATARACT OPERATION,,HLT_0432,,HLGT_0058,,SURGICAL AND MEDICAL PROCEDURES,,SURGICAL AND MEDICAL PROCEDURES,,MODERATE,N,,NONE,RECOVERED/RESOLVED,N,N,N,N,N,N,N,TREATMENT,2013-05-08,2013-04-25,2013-04-25,57.0,44.0,44.0
CDISCPILOT01,AE,01-703-1100,8.0,E07,OEDEMA PERIPHERAL,LEG EDEMA,,OEDEMA PERIPHERAL,,HLT_0661,,HLGT_0137,,GENERAL DISORDERS AND ADMINISTRATION SITE CONDITIONS,,GENERAL DISORDERS AND ADMINISTRATION SITE CONDITIONS,,MODERATE,N,,REMOTE,RECOVERED/RESOLVED,N,N,N,N,N,N,N,SCREENING,2013-09-14,2013-02-28,2013-09-14,186.0,-13.0,186.0
CDISCPILOT01,AE,01-703-1100,9.0,E09,OEDEMA PERIPHERAL,LEG EDEMA,,OEDEMA PERIPHERAL,,HLT_0661,,HLGT_0137,,GENERAL DISORDERS AND ADMINISTRATION SITE CONDITIONS,,GENERAL DISORDERS AND ADMINISTRATION SITE CONDITIONS,,MILD,N,,REMOTE,RECOVERED/RESOLVED,N,N,N,N,N,N,N,TREATMENT,2013-09-14,2013-07-17,2013-09-14,186.0,127.0,186.0
CDISCPILOT01,AE,01-703-1100,5.0,E08,UPPER RESPIRATORY TRACT INFECTION,UPPER RESPIRATORY INFECTION,,UPPER RESPIRATORY TRACT INFECTION,,HLT_0520,,HLGT_0489,,INFECTIONS AND INFESTATIONS,,INFECTIONS AND INFESTATIONS,,MODERATE,N,,REMOTE,RECOVERED/RESOLVED,N,N,N,N,N,N,N,TREATMENT,2013-06-05,2013-05-27,2013-06-03,85.0,76.0,83.0
CDISCPILOT01,AE,01-703-1119,1.0,E04,APPLICATION SITE IRRITATION,APPLICATION SITE IRRITATION,,APPLICATION SITE IRRITATION,,HLT_0061,,HLGT_0346,,GENERAL DISORDERS AND ADMINISTRATION SITE CONDITIONS,,GENERAL DISORDERS AND ADMINISTRATION SITE CONDITIONS,,MODERATE,N,,PROBABLE,NOT RECOVERED/NOT RESOLVED,N,N,N,N,N,N,N,TREATMENT,2013-03-21,2013-03-16,,30.0,25.0,
CDISCPILOT01,AE,01-703-1119,2.0,E04,APPLICATION SITE IRRITATION,APPLICATION SITE IRRITATION,,APPLICATION SITE IRRITATION,,HLT_0061,,HLGT_0346,,GENERAL DISORDERS AND ADMINISTRATION SITE CONDITIONS,,GENERAL DISORDERS AND ADMINISTRATION SITE CONDITIONS,,SEVERE,N,,PROBABLE,NOT RECOVERED/NOT RESOLVED,N,N,N,N,N,N,N,TREATMENT,2013-05-17,2013-03-16,,87.0,25.0,
CDISCPILOT01,AE,01-703-1119,3.0,E05,PRURITUS,ITCHING,,PRURITUS,,HLT_0778,,HLGT_0695,,SKIN AND SUBCUTANEOUS TISSUE DISORDERS,,SKIN AND SUBCUTANEOUS TISSUE DISORDERS,,MODERATE,N,,PROBABLE,NOT RECOVERED/NOT RESOLVED,N,N,N,N,N,N,N,TREATMENT,2013-05-17,2013-05-04,,87.0,74.0,
CDISCPILOT01,AE,01-703-1119,4.0,E05,PRURITUS,ITCHING,,PRURITUS,,HLT_0778,,HLGT_0695,,SKIN AND SUBCUTANEOUS TISSUE DISORDERS,,SKIN AND SUBCUTANEOUS TISSUE DISORDERS,,SEVERE,N,,PROBABLE,NOT RECOVERED/NOT RESOLVED,N,N,N,N,N,N,N,TREATMENT,2013-06-13,2013-05-04,,114.0,74.0,
CDISCPILOT01,AE,01-703-1175,1.0,E01,ATRIOVENTRICULAR BLOCK SECOND DEGREE,HEART BLOCK SECOND DEGREE,,ATRIOVENTRICULAR BLOCK SECOND DEGREE,,HLT_0415,,HLGT_0086,,CARDIAC DISORDERS,,CARDIAC DISORDERS,,SEVERE,N,,NONE,NOT RECOVERED/NOT RESOLVED,N,N,N,N,N,N,N,SCREENING,2013-12-18,2013-12-18,,-2.0,-2.0,
CDISCPILOT01,AE,01-703-1182,1.0,E05,APPLICATION SITE ERYTHEMA,APPLICATION SITE REDNESS,,APPLICATION SITE ERYTHEMA,,HLT_0617,,HLGT_0152,,GENERAL DISORDERS AND ADMINISTRATION SITE CONDITIONS,,GENERAL DISORDERS AND ADMINISTRATION SITE CONDITIONS,,MILD,N,,POSSIBLE,NOT RECOVERED/NOT RESOLVED,N,N,N,N,N,N,N,TREATMENT,2013-10-31,2013-10-31,,15.0,15.0,
CDISCPILOT01,AE,01-703-1182,2.0,E05,APPLICATION SITE ERYTHEMA,APPLICATION SITE REDNESS,,APPLICATION SITE ERYTHEMA,,HLT_0617,,HLGT_0152,,GENERAL DISORDERS AND ADMINISTRATION SITE CONDITIONS,,GENERAL DISORDERS AND ADMINISTRATION SITE CONDITIONS,,MODERATE,N,,POSSIBLE,NOT RECOVERED/NOT RESOLVED,N,N,N,N,N,N,N,TREATMENT,2013-11-28,2013-10-31,,43.0,15.0,
CDISCPILOT01,AE,01-703-1182,3.0,E07,SOMNOLENCE,DROWSINESS,,SOMNOLENCE,,HLT_0160,,HLGT_0254,,NERVOUS SYSTEM DISORDERS,,NERVOUS SYSTEM DISORDERS,,MILD,N,,REMOTE,NOT RECOVERED/NOT RESOLVED,N,N,N,N,N,N,N,TREATMENT,2013-11-28,2013-11-22,,43.0,37.0,
CDISCPILOT01,AE,01-703-1182,4.0,E07,SOMNOLENCE,DROWSINESS,,SOMNOLENCE,,HLT_0160,,HLGT_0254,,NERVOUS SYSTEM DISORDERS,,NERVOUS SYSTEM DISORDERS,,MODERATE,N,,REMOTE,NOT RECOVERED/NOT RESOLVED,N,N,N,N,N,N,N,TREATMENT,2013-12-12,2013-11-22,,57.0,37.0,
CDISCPILOT01,AE,01-703-1210,2.0,E04,DECREASED APPETITE,DECREASED APPETITE,,DECREASED APPETITE,,HLT_0574,,HLGT_0231,,METABOLISM AND NUTRITION DISORDERS,,METABOLISM AND NUTRITION DISORDERS,,MILD,N,,POSSIBLE,NOT RECOVERED/NOT RESOLVED,N,N,N,N,N,N,N,TREATMENT,2013-05-10,2013-05-04,,56.0,50.0,
CDISCPILOT01,AE,01-703-1210,3.0,E04,DECREASED APPETITE,DECREASED APPETITE,,DECREASED APPETITE,,HLT_0574,,HLGT_0231,,METABOLISM AND NUTRITION DISORDERS,,METABOLISM AND NUTRITION DISORDERS,,MODERATE,N,,POSSIBLE,NOT RECOVERED/NOT RESOLVED,N,N,N,N,N,N,N,TREATMENT,2013-08-24,2013-05-04,,162.0,50.0,
CDISCPILOT01,AE,01-703-1210,1.0,E01,DISORIENTATION,DISORIENTATION,,DISORIENTATION,,HLT_0299,,HLGT_0307,,PSYCHIATRIC DISORDERS,,PSYCHIATRIC DISORDERS,,MILD,N,,REMOTE,NOT RECOVERED/NOT RESOLVED,N,N,N,N,N,N,N,TREATMENT,2013-04-12,2013-04-02,,28.0,18.0,
CDISCPILOT01,AE,01-703-1258,6.0,E08,APPLICATION SITE DERMATITIS,APPLICATION SITE RASH,,APPLICATION SITE DERMATITIS,,HLT_0343,,HLGT_0241,,GENERAL DISORDERS AND ADMINISTRATION SITE CONDITIONS,,GENERAL DISORDERS AND ADMINISTRATION SITE CONDITIONS,,MODERATE,N,,PROBABLE,NOT RECOVERED/NOT RESOLVED,N,N,N,N,N,N,N,TREATMENT,2012-09-14,2012-09-04,2013-01-25,57.0,47.0,190.0
CDISCPILOT01,AE,01-703-1258,7.0,E08,APPLICATION SITE DERMATITIS,APPLICATION SITE RASH,,APPLICATION SITE DERMATITIS,,HLT_0343,,HLGT_0241,,GENERAL DISORDERS AND ADMINISTRATION SITE CONDITIONS,,GENERAL DISORDERS AND ADMINISTRATION SITE CONDITIONS,,MILD,N,,PROBABLE,RECOVERED/RESOLVED,N,N,N,N,N,N,N,TREATMENT,2013-01-28,2012-09-04,2013-01-25,193.0,47.0,190.0
CDISCPILOT01,AE,01-703-1258,2.0,E06,DIZZINESS,DIZZINESS,,DIZZINESS,,HLT_0619,,HLGT_0751,,NERVOUS SYSTEM DISORDERS,,NERVOUS SYSTEM DISORDERS,,MODERATE,N,,NONE,NOT RECOVERED/NOT RESOLVED,N,N,N,N,N,N,N,SCREENING,2012-09-04,2001,,47.0,,
CDISCPILOT01,AE,01-703-1258,5.0,E06,DIZZINESS,DIZZINESS,,DIZZINESS,,HLT_0619,,HLGT_0751,,NERVOUS SYSTEM DISORDERS,,NERVOUS SYSTEM DISORDERS,,MILD,N,,NONE,NOT RECOVERED/NOT RESOLVED,N,N,N,N,N,N,N,SCREENING,2012-09-14,2001,,57.0,,
CDISCPILOT01,AE,01-703-1258,3.0,E07,UPPER RESPIRATORY TRACT INFECTION,UPPER RESPIRATORY INFECTION,,UPPER RESPIRATORY TRACT INFECTION,,HLT_0520,,HLGT_0489,,INFECTIONS AND INFESTATIONS,,INFECTIONS AND INFESTATIONS,,MILD,N,,NONE,RECOVERED/RESOLVED,N,N,N,N,N,N,N,TREATMENT,2012-09-04,2012-08-11,2012-08-19,47.0,23.0,31.0
CDISCPILOT01,AE,01-703-1295,1.0,E06,ARTHRITIS,ARTHRITIS,,ARTHRITIS,,HLT_0019,,HLGT_0587,,MUSCULOSKELETAL AND CONNECTIVE TISSUE DISORDERS,,MUSCULOSKELETAL AND CONNECTIVE TISSUE DISORDERS,,MODERATE,N,,NONE,NOT RECOVERED/NOT RESOLVED,N,N,N,N,N,N,N,TREATMENT,2014-01-01,2013-12-28,,42.0,38.0,
CDISCPILOT01,AE,01-703-1299,3.0,E01,GLAUCOMA,GLAUCOMA,,GLAUCOMA,,HLT_0556,,HLGT_0734,,EYE DISORDERS,,EYE DISORDERS,,MODERATE,N,,NONE,NOT RECOVERED/NOT RESOLVED,N,N,N,N,N,N,N,SCREENING,2013-03-01,1992,,171.0,,
CDISCPILOT01,AE,01-703-1299,4.0,E05,HYPOTENSION,HYPOTENSION,,HYPOTENSION,,HLT_0761,,HLGT_0412,,VASCULAR DISORDERS,,VASCULAR DISORDERS,,MILD,N,,REMOTE,NOT RECOVERED/NOT RESOLVED,N,N,N,N,N,N,N,TREATMENT,2013-03-01,2013-03-01,,171.0,171.0,
CDISCPILOT01,AE,01-703-1299,6.0,E05,HYPOTENSION,HYPOTENSION,,HYPOTENSION,,HLT_0761,,HLGT_0412,,VASCULAR DISORDERS,,VASCULAR DISORDERS,,MODERATE,N,,REMOTE,NOT RECOVERED/NOT RESOLVED,N,N,N,N,N,N,N,TREATMENT,2013-03-13,2013-03-01,,183.0,171.0,
CDISCPILOT01,AE,01-703-1299,8.0,E07,MYOCARDIAL INFARCTION,MYOCARDIAL INFARCTION,,MYOCARDIAL INFARCTION,,HLT_0649,,HLGT_0688,,CARDIAC DISORDERS,,CARDIAC DISORDERS,,MODERATE,N,,REMOTE,NOT RECOVERED/NOT RESOLVED,N,N,N,N,N,N,N,TREATMENT,2013-03-13,2013-03-13,,183.0,183.0,
CDISCPILOT01,AE,01-703-1299,5.0,E06,TACHYCARDIA,TACHYCARDIA,,TACHYCARDIA,,HLT_0082,,HLGT_0574,,CARDIAC DISORDERS,,CARDIAC DISORDERS,,MILD,N,,REMOTE,NOT RECOVERED/NOT RESOLVED,N,N,N,N,N,N,N,TREATMENT,2013-03-01,2013-03-01,,171.0,171.0,
CDISCPILOT01,AE,01-703-1299,7.0,E06,TACHYCARDIA,TACHYCARDIA,,TACHYCARDIA,,HLT_0082,,HLGT_0574,,CARDIAC DISORDERS,,CARDIAC DISORDERS,,MODERATE,N,,REMOTE,NOT RECOVERED/NOT RESOLVED,N,N,N,N,N,N,N,TREATMENT,2013-03-13,2013-03-01,,183.0,171.0,
CDISCPILOT01,AE,01-703-1299,2.0,E02,UPPER RESPIRATORY TRACT INFECTION,UPPER RESPIRATORY INFECTION,,UPPER RESPIRATORY TRACT INFECTION,,HLT_0520,,HLGT_0489,,INFECTIONS AND INFESTATIONS,,INFECTIONS AND INFESTATIONS,,MILD,N,,NONE,RECOVERED/RESOLVED,N,N,N,N,N,N,N,TREATMENT,2012-10-10,2012-09-27,2012-10-06,29.0,16.0,25.0
CDISCPILOT01,AE,01-703-1335,2.0,E01,ATRIOVENTRICULAR BLOCK SECOND DEGREE,AV BLOCK SECOND DEGREE,,ATRIOVENTRICULAR BLOCK SECOND DEGREE,,HLT_0415,,HLGT_0086,,CARDIAC DISORDERS,,CARDIAC DISORDERS,,MILD,N,,NONE,RECOVERED/RESOLVED,N,N,N,N,N,N,N,SCREENING,2014-03-31,2014-03-15,2014-03-30,15.0,-2.0,14.0
CDISCPILOT01,AE,01-703-1403,4.0,E03,CHEST DISCOMFORT,CHEST TIGHTNESS,,CHEST DISCOMFORT,,HLT_0593,,HLGT_0441,,GENERAL DISORDERS AND ADMINISTRATION SITE CONDITIONS,,GENERAL DISORDERS AND ADMINISTRATION SITE CONDITIONS,,MILD,N,,PROBABLE,RECOVERED/RESOLVED,N,N,N,N,N,N,N,TREATMENT,2012-12-19,2012-12-15,2012-12-16,8.0,4.0,5.0
CDISCPILOT01,AE,01-703-1403,2.0,E01,DIARRHOEA,DIARRHEA,,DIARRHOEA,,HLT_0148,,HLGT_0588,,GASTROINTESTINAL DISORDERS,,GASTROINTESTINAL DISORDERS,,MODERATE,N,,PROBABLE,RECOVERED/RESOLVED,N,N,N,N,N,N,N,TREATMENT,2012-12-19,2012-12-13,2012-12-14,8.0,2.0,3.0
CDISCPILOT01,AE,01-703-1403,3.0,E02,VOMITING,VOMITING,,VOMITING,,HLT_0016,,HLGT_0350,,GASTROINTESTINAL DISORDERS,,GASTROINTESTINAL DISORDERS,,MODERATE,N,,PROBABLE,RECOVERED/RESOLVED,N,N,N,N,N,N,N,TREATMENT,2012-12-19,2012-12-13,2012-12-14,8.0,2.0,3.0
CDISCPILOT01,AE,01-703-1403,5.0,E07,WEIGHT DECREASED,WEIGHT LOSS,,WEIGHT DECREASED,,HLT_0158,,HLGT_0778,,INVESTIGATIONS,,INVESTIGATIONS,,MODERATE,N,,NONE,RECOVERED/RESOLVED,N,N,N,N,N,N,N,TREATMENT,2013-01-08,2012-12-12,2012-12-19,28.0,1.0,8.0
CDISCPILOT01,AE,01-703-1439,1.0,E01,APPLICATION SITE IRRITATION,APPLICATION SITE IRRITATION,,APPLICATION SITE IRRITATION,,HLT_0061,,HLGT_0346,,GENERAL DISORDERS AND ADMINISTRATION SITE CONDITIONS,,GENERAL DISORDERS AND ADMINISTRATION SITE CONDITIONS,,MILD,N,,PROBABLE,NOT RECOVERED/NOT RESOLVED,N,N,N,N,N,N,N,TREATMENT,2014-05-05,2014-04-24,,55.0,44.0,
CDISCPILOT01,AE,01-703-1439,2.0,E01,APPLICATION SITE IRRITATION,APPLICATION SITE IRRITATION,,APPLICATION SITE IRRITATION,,HLT_0061,,HLGT_0346,,GENERAL DISORDERS AND ADMINISTRATION SITE CONDITIONS,,GENERAL DISORDERS AND ADMINISTRATION SITE CONDITIONS,,MODERATE,N,,PROBABLE,NOT RECOVERED/NOT RESOLVED,N,N,N,N,N,N,N,TREATMENT,2014-06-30,2014-04-24,,111.0,44.0,
CDISCPILOT01,AE,01-704-1008,1.0,E03,HYPERHIDROSIS,SWEATING INCREASED,,HYPERHIDROSIS,,HLT_0587,,HLGT_0005,,SKIN AND SUBCUTANEOUS TISSUE DISORDERS,,SKIN AND SUBCUTANEOUS TISSUE DISORDERS,,MILD,N,,POSSIBLE,NOT RECOVERED/NOT RESOLVED,N,N,N,N,N,N,N,TREATMENT,2013-02-09,2013-01-30,,28.0,18.0,
CDISCPILOT01,AE,01-704-1008,3.0,E05,SINUS BRADYCARDIA,SINUS BRADYCARDIA,,SINUS BRADYCARDIA,,HLT_0644,,HLGT_0500,,CARDIAC DISORDERS,,CARDIAC DISORDERS,,MODERATE,N,,NONE,NOT RECOVERED/NOT RESOLVED,N,N,N,N,N,N,N,TREATMENT,2013-02-25,2013-02-25,,44.0,44.0,
CDISCPILOT01,AE,01-704-1008,2.0,E06,TRANSIENT ISCHAEMIC ATTACK,TRANSIENT ISCHEMIC ATTACKS,,TRANSIENT ISCHAEMIC ATTACK,,HLT_0041,,HLGT_0433,,NERVOUS SYSTEM DISORDERS,,NERVOUS SYSTEM DISORDERS,,SEVERE,N,,NONE,RECOVERED/RESOLVED,N,N,N,N,Y,N,N,TREATMENT,2013-02-25,2013-02-21,2013-02-21,44.0,40.0,40.0
CDISCPILOT01,AE,01-704-1009,5.0,E07,DIZZINESS,DIZZINESS,,DIZZINESS,,HLT_0619,,HLGT_0751,,NERVOUS SYSTEM DISORDERS,,NERVOUS SYSTEM DISORDERS,,MILD,N,,REMOTE,NOT RECOVERED/NOT RESOLVED,N,N,N,N,N,N,N,TREATMENT,2013-10-02,2013-09-17,,37.0,22.0,
CDISCPILOT01,AE,01-704-1009,1.0,E09,FATIGUE,FATIGUE,,FATIGUE,,HLT_0043,,HLGT_0181,,GENERAL DISORDERS AND ADMINISTRATION SITE CONDITIONS,,GENERAL DISORDERS AND ADMINISTRATION SITE CONDITIONS,,MILD,N,,REMOTE,NOT RECOVERED/NOT RESOLVED,N,N,N,N,N,N,N,TREATMENT,2013-09-14,2013-09-05,,19.0,10.0,
CDISCPILOT01,AE,01-704-1009,4.0,E10,MALAISE,MALAISE,,MALAISE,,HLT_0456,,HLGT_0178,,GENERAL DISORDERS AND ADMINISTRATION SITE CONDITIONS,,GENERAL DISORDERS AND ADMINISTRATION SITE CONDITIONS,,MILD,N,,POSSIBLE,RECOVERED/RESOLVED,N,N,N,N,N,N,N,TREATMENT,2013-10-02,2013-09-05,2013-09-27,37.0,10.0,32.0
CDISCPILOT01,AE,01-704-1009,6.0,E08,NAUSEA,NAUSEA,,NAUSEA,,HLT_0742,,HLGT_0326,,GASTROINTESTINAL DISORDERS,,GASTROINTESTINAL DISORDERS,,MILD,N,,POSSIBLE,RECOVERED/RESOLVED,N,N,N,N,N,N,N,TREATMENT,2013-10-02,2013-09-22,2013-09-23,37.0,27.0,28.0
CDISCPILOT01,AE,01-704-1009,3.0,E03,RASH,RASH,,RASH,,HLT_0762,,HLGT_0198,,SKIN AND SUBCUTANEOUS TISSUE DISORDERS,,SKIN AND SUBCUTANEOUS TISSUE DISORDERS,,MILD,N,,POSSIBLE,NOT RECOVERED/NOT RESOLVED,N,N,N,N,N,N,N,TREATMENT,2013-09-14,2013-09-14,,19.0,19.0,
CDISCPILOT01,AE,01-704-1010,6.0,E07,ARTHRALGIA,KNEE PAIN,,ARTHRALGIA,,HLT_0375,,HLGT_0610,,MUSCULOSKELETAL AND CONNECTIVE TISSUE DISORDERS,,MUSCULOSKELETAL AND CONNECTIVE TISSUE DISORDERS,,MILD,N,,NONE,NOT RECOVERED/NOT RESOLVED,N,N,N,N,N,N,N,TREATMENT,2014-07-09,2014-07-06,,139.0,136.0,
CDISCPILOT01,AE,01-704-1010,7.0,E08,CONTUSION,BRUISE OF HEAD,,CONTUSION,,HLT_0713,,HLGT_0381,,"INJURY, POISONING AND PROCEDURAL COMPLICATIONS",,"INJURY, POISONING AND PROCEDURAL COMPLICATIONS",,MILD,N,,NONE,NOT RECOVERED/NOT RESOLVED,N,N,N,N,N,N,N,TREATMENT,2014-07-09,2014-07-06,,139.0,136.0,
CDISCPILOT01,AE,01-704-1010,1.0,E01,CYSTITIS,BLADDER INFECTION,,CYSTITIS,,HLT_0739,,HLGT_0129,,INFECTIONS AND INFESTATIONS,,INFECTIONS AND INFESTATIONS,,MILD,N,,NONE,RECOVERED/RESOLVED,N,N,N,N,N,N,N,TREATMENT,2014-03-08,2014-02-27,2014-03-06,16.0,7.0,14.0
CDISCPILOT01,AE,01-704-1010,3.0,E04,DIARRHOEA,DIARRHEA,,DIARRHOEA,,HLT_0148,,HLGT_0588,,GASTROINTESTINAL DISORDERS,,GASTROINTESTINAL DISORDERS,,MILD,N,,NONE,RECOVERED/RESOLVED,N,N,N,N,N,N,N,TREATMENT,2014-07-09,2014-07-05,2014-07-06,139.0,135.0,136.0
CDISCPILOT01,AE,01-704-1010,4.0,E05,EXCORIATION,ABRASION NOS,,EXCORIATION,,HLT_0738,,HLGT_0511,,"INJURY, POISONING AND PROCEDURAL COMPLICATIONS",,"INJURY, POISONING AND PROCEDURAL COMPLICATIONS",,MILD,N,,NONE,NOT RECOVERED/NOT RESOLVED,N,N,N,N,N,N,N,TREATMENT,2014-07-09,2014-07-06,,139.0,136.0,
CDISCPILOT01,AE,01-704-1010,5.0,E06,SKIN LACERATION,SKIN TEAR,,SKIN LACERATION,,HLT_0075,,HLGT_0118,,"INJURY, POISONING AND PROCEDURAL COMPLICATIONS",,"INJURY, POISONING AND PROCEDURAL COMPLICATIONS",,MILD,N,,NONE,NOT RECOVERED/NOT RESOLVED,N,N,N,N,N,N,N,TREATMENT,2014-07-09,2014-07-06,,139.0,136.0,
CDISCPILOT01,AE,01-704-1010,2.0,E03,VOMITING,VOMITING,,VOMITING,,HLT_0016,,HLGT_0350,,GASTROINTESTINAL DISORDERS,,GASTROINTESTINAL DISORDERS,,MILD,N,,NONE,RECOVERED/RESOLVED,N,N,N,N,N,N,N,TREATMENT,2014-07-09,2014-07-05,2014-07-06,139.0,135.0,136.0
CDISCPILOT01,AE,01-704-1017,4.0,E16,CARDIAC DISORDER,CARDIAC DISORDER,,CARDIAC DISORDER,,HLT_0507,,HLGT_0126,,CARDIAC DISORDERS,,CARDIAC DISORDERS,,MILD,N,,NONE,NOT RECOVERED/NOT RESOLVED,N,N,N,N,N,N,N,TREATMENT,2013-11-09,2013-11-01,,35.0,27.0,
CDISCPILOT01,AE,01-704-1017,3.0,E13,INFLUENZA,FLU,,INFLUENZA,,HLT_0125,,HLGT_0081,,INFECTIONS AND INFESTATIONS,,INFECTIONS AND INFESTATIONS,,MILD,N,,NONE,RECOVERED/RESOLVED,N,N,N,N,N,N,N,TREATMENT,2013-11-09,2013-11-01,2013-11-08,35.0,27.0,34.0
CDISCPILOT01,AE,01-704-1017,1.0,E14,MYOCARDIAL INFARCTION,MYOCARDIAL INFARCTION,,MYOCARDIAL INFARCTION,,HLT_0649,,HLGT_0688,,CARDIAC DISORDERS,,CARDIAC DISORDERS,,MILD,N,,NONE,NOT RECOVERED/NOT RESOLVED,N,N,N,N,N,N,N,TREATMENT,2013-10-19,2013-10-19,,14.0,14.0,
CDISCPILOT01,AE,01-704-1017,8.0,E12,PRURITUS,ITCHING,,PRURITUS,,HLT_0778,,HLGT_0695,,SKIN AND SUBCUTANEOUS TISSUE DISORDERS,,SKIN AND SUBCUTANEOUS TISSUE DISORDERS,,MILD,N,,PROBABLE,RECOVERED/RESOLVED,N,N,N,N,N,N,N,TREATMENT,2013-11-24,2013-11-05,2013-11-22,50.0,31.0,48.0
CDISCPILOT01,AE,01-704-1017,7.0,E11,RASH,RASH,,RASH,,HLT_0762,,HLGT_0198,,SKIN AND SUBCUTANEOUS TISSUE DISORDERS,,SKIN AND SUBCUTANEOUS TISSUE DISORDERS,,MILD,N,,PROBABLE,RECOVERED/RESOLVED,N,N,N,N,N,N,N,TREATMENT,2013-11-24,2013-11-05,2013-11-22,50.0,31.0,48.0
CDISCPILOT01,AE,01-704-1017,2.0,E15,VENTRICULAR SEPTAL DEFECT,VENTRICULAR SEPTAL DEFECT,,VENTRICULAR SEPTAL DEFECT,,HLT_0589,,HLGT_0747,,"CONGENITAL, FAMILIAL AND GENETIC DISORDERS",,"CONGENITAL, FAMILIAL AND GENETIC DISORDERS",,MILD,N,,NONE,NOT RECOVERED/NOT RESOLVED,N,N,N,N,N,N,N,TREATMENT,2013-10-19,2013-10-19,,14.0,14.0,
CDISCPILOT01,AE,01-704-1025,5.0,E05,ELECTROCARDIOGRAM ST SEGMENT DEPRESSION,ST SEGMENT DEPRESSED,,ELECTROCARDIOGRAM ST SEGMENT DEPRESSION,,HLT_0610,,HLGT_0220,,INVESTIGATIONS,,INVESTIGATIONS,,MILD,N,,POSSIBLE,RECOVERED/RESOLVED,N,N,N,N,N,N,N,TREATMENT,2013-11-29,2013-10-11,2013-10-25,64.0,15.0,29.0
CDISCPILOT01,AE,01-704-1025,2.0,E02,PALPITATIONS,PALPITATIONS,,PALPITATIONS,,HLT_0493,,HLGT_0593,,CARDIAC DISORDERS,,CARDIAC DISORDERS,,MODERATE,N,,REMOTE,RECOVERED/RESOLVED,N,N,N,N,N,N,N,TREATMENT,2013-10-11,2013-09-28,2013-09-30,15.0,2.0,4.0
CDISCPILOT01,AE,01-704-1025,1.0,E01,VERTIGO,VERTIGO,,VERTIGO,,HLT_0255,,HLGT_0147,,EAR AND LABYRINTH DISORDERS,,EAR AND LABYRINTH DISORDERS,,MODERATE,N,,POSSIBLE,RECOVERED/RESOLVED,N,N,N,N,N,N,N,TREATMENT,2013-10-11,2013-09-28,2013-09-30,15.0,2.0,4.0
CDISCPILOT01,AE,01-704-1025,6.0,E06,WOLFF-PARKINSON-WHITE SYNDROME,WOLFF-PARKINSON-WHITE SYNDROME,,WOLFF-PARKINSON-WHITE SYNDROME,,HLT_0612,,HLGT_0218,,CARDIAC DISORDERS,,CARDIAC DISORDERS,,MILD,N,,POSSIBLE,RECOVERED/RESOLVED,N,N,N,N,N,N,N,TREATMENT,2013-11-29,2013-10-25,2013-11-29,64.0,29.0,64.0
CDISCPILOT01,AE,01-704-1065,1.0,E13,ABDOMINAL DISCOMFORT,ABDOMINAL DISCOMFORT,,ABDOMINAL DISCOMFORT,,HLT_0012,,HLGT_0332,,GASTROINTESTINAL DISORDERS,,GASTROINTESTINAL DISORDERS,,MILD,N,,REMOTE,NOT RECOVERED/NOT RESOLVED,N,N,N,N,N,N,N,TREATMENT,2013-11-07,2013-10-26,,15.0,3.0,
CDISCPILOT01,AE,01-704-1065,4.0,E12,APPLICATION SITE IRRITATION,APPLICATION SITE BURNING,,APPLICATION SITE IRRITATION,,HLT_0061,,HLGT_0346,,GENERAL DISORDERS AND ADMINISTRATION SITE CONDITIONS,,GENERAL DISORDERS AND ADMINISTRATION SITE CONDITIONS,,MILD,N,,PROBABLE,NOT RECOVERED/NOT RESOLVED,N,N,N,N,N,N,N,TREATMENT,2013-11-25,2013-11-09,,33.0,17.0,
CDISCPILOT01,AE,01-704-1065,3.0,E10,APPLICATION SITE PRURITUS,APPLICATION SITE ITCHING,,APPLICATION SITE PRURITUS,,HLT_0317,,HLGT_0338,,GENERAL DISORDERS AND ADMINISTRATION SITE CONDITIONS,,GENERAL DISORDERS AND ADMINISTRATION SITE CONDITIONS,,MODERATE,N,,PROBABLE,NOT RECOVERED/NOT RESOLVED,N,N,N,N,N,N,N,TREATMENT,2013-11-07,2013-10-27,,15.0,4.0,
CDISCPILOT01,AE,01-704-1065,7.0,E16,CHILLS,CHILLS,,CHILLS,,HLT_0586,,HLGT_0161,,GENERAL DISORDERS AND ADMINISTRATION SITE CONDITIONS,,GENERAL DISORDERS AND ADMINISTRATION SITE CONDITIONS,,MILD,N,,REMOTE,RECOVERED/RESOLVED,N,N,N,N,N,N,N,TREATMENT,2013-11-25,2013-11-17,2013-11-17,33.0,25.0,25.0
CDISCPILOT01,AE,01-704-1065,9.0,E18,DIARRHOEA,DIARRHEA,,DIARRHOEA,,HLT_0148,,HLGT_0588,,GASTROINTESTINAL DISORDERS,,GASTROINTESTINAL DISORDERS,,MILD,N,,REMOTE,RECOVERED/RESOLVED,N,N,N,N,N,N,N,TREATMENT,2013-12-20,2013-12-15,2013-12-15,58.0,53.0,53.0
CDISCPILOT01,AE,01-704-1065,8.0,E17,DIZZINESS,DIZZINESS,,DIZZINESS,,HLT_0619,,HLGT_0751,,NERVOUS SYSTEM DISORDERS,,NERVOUS SYSTEM DISORDERS,,MILD,N,,REMOTE,RECOVERED/RESOLVED,N,N,N,N,N,N,N,TREATMENT,2013-11-25,2013-11-17,2013-11-17,33.0,25.0,25.0
CDISCPILOT01,AE,01-704-1065,6.0,E15,HYPERHIDROSIS,PERSPIRATION EXCESSIVE,,HYPERHIDROSIS,,HLT_0587,,HLGT_0005,,SKIN AND SUBCUTANEOUS TISSUE DISORDERS,,SKIN AND SUBCUTANEOUS TISSUE DISORDERS,,MILD,N,,POSSIBLE,NOT RECOVERED/NOT RESOLVED,N,N,N,N,N,N,N,TREATMENT,2013-11-25,2013-11-09,,33.0,17.0,
CDISCPILOT01,AE,01-704-1065,5.0,E14,MALAISE,MALAISE,,MALAISE,,HLT_0456,,HLGT_0178,,GENERAL DISORDERS AND ADMINISTRATION SITE CONDITIONS,,GENERAL DISORDERS AND ADMINISTRATION SITE CONDITIONS,,MILD,N,,POSSIBLE,NOT RECOVERED/NOT RESOLVED,N,N,N,N,N,N,N,TREATMENT,2013-11-25,2013-11-09,,33.0,17.0,
CDISCPILOT01,AE,01-704-1065,2.0,E07,RASH,RASH,,RASH,,HLT_0762,,HLGT_0198,,SKIN AND SUBCUTANEOUS TISSUE DISORDERS,,SKIN AND SUBCUTANEOUS TISSUE DISORDERS,,MILD,N,,PROBABLE,NOT RECOVERED/NOT RESOLVED,N,N,N,N,N,N,N,TREATMENT,2013-11-07,2013-10-27,,15.0,4.0,
CDISCPILOT01,AE,01-704-1065,10.0,E19,SINUS BRADYCARDIA,BRADYCARDIA SINUS,,SINUS BRADYCARDIA,,HLT_0644,,HLGT_0500,,CARDIAC DISORDERS,,CARDIAC DISORDERS,,MILD,N,,NONE,NOT RECOVERED/NOT RESOLVED,N,N,N,N,N,N,N,TREATMENT,2013-12-24,2013-12-24,,62.0,62.0,
CDISCPILOT01,AE,01-704-1074,2.0,E09,ERYTHEMA,SKIN RED,,ERYTHEMA,,HLT_0284,,HLGT_0192,,SKIN AND SUBCUTANEOUS TISSUE DISORDERS,,SKIN AND SUBCUTANEOUS TISSUE DISORDERS,,MILD,N,,PROBABLE,NOT RECOVERED/NOT RESOLVED,N,N,N,N,N,N,N,TREATMENT,2014-02-09,2014-02-09,,19.0,19.0,
CDISCPILOT01,AE,01-704-1074,1.0,E08,PRURITUS,ITCHING,,PRURITUS,,HLT_0778,,HLGT_0695,,SKIN AND SUBCUTANEOUS TISSUE DISORDERS,,SKIN AND SUBCUTANEOUS TISSUE DISORDERS,,MILD,N,,PROBABLE,NOT RECOVERED/NOT RESOLVED,N,N,N,N,N,N,N,TREATMENT,2014-01-22,2014-01-22,,1.0,1.0,
CDISCPILOT01,AE,01-704-1093,2.0,E02,BLOOD GLUCOSE INCREASED,GLUCOSE INCREASED,,BLOOD GLUCOSE INCREASED,,HLT_0450,,HLGT_0188,,INVESTIGATIONS,,INVESTIGATIONS,,MILD,N,,NONE,RECOVERED/RESOLVED,N,N,N,N,N,N,N,TREATMENT,2013-04-17,2013-03-30,2013-04-13,34.0,16.0,30.0
CDISCPILOT01,AE,01-704-1093,4.0,E06,PRURITUS,ITCHING,,PRURITUS,,HLT_0778,,HLGT_0695,,SKIN AND SUBCUTANEOUS TISSUE DISORDERS,,SKIN AND SUBCUTANEOUS TISSUE DISORDERS,,MILD,N,,PROBABLE,NOT RECOVERED/NOT RESOLVED,N,N,N,N,N,N,N,TREATMENT,2013-05-11,2013-05-04,,58.0,51.0,
CDISCPILOT01,AE,01-704-1093,3.0,E05,RASH,RASH,,RASH,,HLT_0762,,HLGT_0198,,SKIN AND SUBCUTANEOUS TISSUE DISORDERS,,SKIN AND SUBCUTANEOUS TISSUE DISORDERS,,MILD,N,,PROBABLE,NOT RECOVERED/NOT RESOLVED,N,N,N,N,N,N,N,TREATMENT,2013-05-11,2013-05-04,,58.0,51.0,
CDISCPILOT01,AE,01-704-1114,1.0,E06,ERYTHEMA,REDNESS,,ERYTHEMA,,HLT_0284,,HLGT_0192,,SKIN AND SUBCUTANEOUS TISSUE DISORDERS,,SKIN AND SUBCUTANEOUS TISSUE DISORDERS,,MILD,N,,PROBABLE,RECOVERED/RESOLVED,N,N,N,N,N,N,N,TREATMENT,2013-03-13,2013-02-21,2013-02-23,50.0,30.0,32.0
CDISCPILOT01,AE,01-704-1114,5.0,E07,INFLUENZA,FLU,,INFLUENZA,,HLT_0125,,HLGT_0081,,INFECTIONS AND INFESTATIONS,,INFECTIONS AND INFESTATIONS,,MILD,N,,NONE,RECOVERED/RESOLVED,N,N,N,N,N,N,N,TREATMENT,2013-06-16,2013-06-07,2013-06-13,145.0,136.0,142.0
CDISCPILOT01,AE,01-704-1114,2.0,E03,OEDEMA,EDEMA,,OEDEMA,,HLT_0656,,HLGT_0036,,GENERAL DISORDERS AND ADMINISTRATION SITE CONDITIONS,,GENERAL DISORDERS AND ADMINISTRATION SITE CONDITIONS,,MILD,N,,PROBABLE,NOT RECOVERED/NOT RESOLVED,N,N,N,N,N,N,N,TREATMENT,2013-03-13,2013-02-23,,50.0,32.0,
CDISCPILOT01,AE,01-704-1114,4.0,E05,PRURITUS,ITCHING,,PRURITUS,,HLT_0778,,HLGT_0695,,SKIN AND SUBCUTANEOUS TISSUE DISORDERS,,SKIN AND SUBCUTANEOUS TISSUE DISORDERS,,MILD,N,,PROBABLE,NOT RECOVERED/NOT RESOLVED,N,N,N,N,N,N,N,TREATMENT,2013-03-26,2013-03-23,,63.0,60.0,
CDISCPILOT01,AE,01-704-1114,3.0,E04,RASH,RASH,,RASH,,HLT_0762,,HLGT_0198,,SKIN AND SUBCUTANEOUS TISSUE DISORDERS,,SKIN AND SUBCUTANEOUS TISSUE DISORDERS,,MILD,N,,PROBABLE,NOT RECOVERED/NOT RESOLVED,N,N,N,N,N,N,N,TREATMENT,2013-03-26,2013-03-23,,63.0,60.0,
CDISCPILOT01,AE,01-704-1120,6.0,E02,NASOPHARYNGITIS,COLD,,NASOPHARYNGITIS,,HLT_0036,,HLGT_0709,,INFECTIONS AND INFESTATIONS,,INFECTIONS AND INFESTATIONS,,MILD,N,,NONE,RECOVERED/RESOLVED,N,N,N,N,N,N,N,TREATMENT,2014-03-10,2013-12-28,2014-02-03,99.0,27.0,64.0
CDISCPILOT01,AE,01-704-1120,4.0,E04,PRURITUS,ITCHING,,PRURITUS,,HLT_0778,,HLGT_0695,,SKIN AND SUBCUTANEOUS TISSUE DISORDERS,,SKIN AND SUBCUTANEOUS TISSUE DISORDERS,,MILD,N,,PROBABLE,NOT RECOVERED/NOT RESOLVED,N,N,N,N,N,N,N,TREATMENT,2014-01-27,2014-01-27,,57.0,57.0,
CDISCPILOT01,AE,01-704-1120,5.0,E04,PRURITUS,ITCHING,,PRURITUS,,HLT_0778,,HLGT_0695,,SKIN AND SUBCUTANEOUS TISSUE DISORDERS,,SKIN AND SUBCUTANEOUS TISSUE DISORDERS,,MODERATE,N,,PROBABLE,NOT RECOVERED/NOT RESOLVED,N,N,N,N,N,N,N,TREATMENT,2014-02-03,2014-01-27,,64.0,57.0,
CDISCPILOT01,AE,01-704-1120,1.0,E01,RASH,RASH,,RASH,,HLT_0762,,HLGT_0198,,SKIN AND SUBCUTANEOUS TISSUE DISORDERS,,SKIN AND SUBCUTANEOUS TISSUE DISORDERS,,MILD,N,,PROBABLE,NOT RECOVERED/NOT RESOLVED,N,N,N,N,N,N,N,TREATMENT,2013-12-29,2013-12-23,,28.0,22.0,
CDISCPILOT01,AE,01-704-1120,3.0,E01,RASH,RASH,,RASH,,HLT_0762,,HLGT_0198,,SKIN AND SUBCUTANEOUS TISSUE DISORDERS,,SKIN AND SUBCUTANEOUS TISSUE DISORDERS,,MODERATE,N,,PROBABLE,NOT RECOVERED/NOT RESOLVED,N,N,N,N,N,N,N,TREATMENT,2014-01-27,2013-12-23,,57.0,22.0,
CDISCPILOT01,AE,01-704-1135,1.0,E01,RASH,RASH,,RASH,,HLT_0762,,HLGT_0198,,SKIN AND SUBCUTANEOUS TISSUE DISORDERS,,SKIN AND SUBCUTANEOUS TISSUE DISORDERS,,MILD,N,,,NOT RECOVERED/NOT RESOLVED,N,N,N,N,N,N,N,TREATMENT,2013-12-11,2013-12-08,,42.0,39.0,
CDISCPILOT01,AE,01-704-1135,2.0,E01,RASH,RASH,,RASH,,HLT_0762,,HLGT_0198,,SKIN AND SUBCUTANEOUS TISSUE DISORDERS,,SKIN AND SUBCUTANEOUS TISSUE DISORDERS,,SEVERE,N,,,NOT RECOVERED/NOT RESOLVED,N,N,N,N,N,N,N,TREATMENT,2014-02-19,2013-12-08,,112.0,39.0,
CDISCPILOT01,AE,01-704-1164,2.0,E02,INFLUENZA,FLU,,INFLUENZA,,HLT_0125,,HLGT_0081,,INFECTIONS AND INFESTATIONS,,INFECTIONS AND INFESTATIONS,,MILD,N,,NONE,RECOVERED/RESOLVED,N,N,N,N,N,N,N,TREATMENT,2012-10-21,2012-09-27,2012-10-07,33.0,9.0,19.0
CDISCPILOT01,AE,01-704-1164,3.0,E07,OEDEMA PERIPHERAL,SWELLING OF FEET,,OEDEMA PERIPHERAL,,HLT_0661,,HLGT_0137,,GENERAL DISORDERS AND ADMINISTRATION SITE CONDITIONS,,GENERAL DISORDERS AND ADMINISTRATION SITE CONDITIONS,,MILD,N,,NONE,RECOVERED/RESOLVED,N,N,N,N,N,N,N,TREATMENT,2013-02-14,2013-02-04,2013-02-13,149.0,139.0,148.0
CDISCPILOT01,AE,01-704-1218,1.0,E05,BLOOD GLUCOSE INCREASED,GLUCOSE INCREASED,,BLOOD GLUCOSE INCREASED,,HLT_0450,,HLGT_0188,,INVESTIGATIONS,,INVESTIGATIONS,,MILD,N,,NONE,NOT RECOVERED/NOT RESOLVED,N,N,N,N,N,N,N,TREATMENT,2012-12-30,2012-12-30,,42.0,42.0,
CDISCPILOT01,AE,01-704-1241,2.0,E03,DYSPNOEA,RESPIRATION LABORED,,DYSPNOEA,,HLT_0296,,HLGT_0255,,"RESPIRATORY, THORACIC AND MEDIASTINAL DISORDERS",,"RESPIRATORY, THORACIC AND MEDIASTINAL DISORDERS",,MILD,N,,NONE,NOT RECOVERED/NOT RESOLVED,N,N,N,N,N,N,N,TREATMENT,2013-10-09,2013-09-28,,46.0,35.0,
CDISCPILOT01,AE,01-704-1241,1.0,E04,RASH,RASH,,RASH,,HLT_0762,,HLGT_0198,,SKIN AND SUBCUTANEOUS TISSUE DISORDERS,,SKIN AND SUBCUTANEOUS TISSUE DISORDERS,,MODERATE,N,,NONE,NOT RECOVERED/NOT RESOLVED,N,N,N,N,N,N,N,SCREENING,2013-10-09,2013-08-14,,46.0,-11.0,
CDISCPILOT01,AE,01-704-1266,13.0,E13,ATRIAL FIBRILLATION,ATRIAL FIBRILLATION,,ATRIAL FIBRILLATION,,HLT_0365,,HLGT_0012,,CARDIAC DISORDERS,,CARDIAC DISORDERS,,MILD,N,,NONE,RECOVERED/RESOLVED,N,N,N,N,N,N,N,TREATMENT,2014-01-03,2013-11-08,2013-12-06,83.0,27.0,55.0
CDISCPILOT01,AE,01-704-1266,5.0,E12,ATRIAL FLUTTER,ATRIAL FLUTTER,,ATRIAL FLUTTER,,HLT_0477,,HLGT_0627,,CARDIAC DISORDERS,,CARDIAC DISORDERS,,MILD,N,,NONE,RECOVERED/RESOLVED,N,N,N,N,N,N,N,TREATMENT,2013-11-10,2013-10-27,2013-11-08,29.0,15.0,27.0
CDISCPILOT01,AE,01-704-1266,14.0,E16,BLISTER,BLISTERING,,BLISTER,,HLT_0752,,HLGT_0267,,SKIN AND SUBCUTANEOUS TISSUE DISORDERS,,SKIN AND SUBCUTANEOUS TISSUE DISORDERS,,MILD,N,,PROBABLE,RECOVERED/RESOLVED,N,N,N,N,N,N,N,TREATMENT,2014-01-03,2013-11-15,2013-12-14,83.0,34.0,63.0
CDISCPILOT01,AE,01-704-1266,2.0,E10,ERYTHEMA,ERYTHEMA,,ERYTHEMA,,HLT_0284,,HLGT_0192,,SKIN AND SUBCUTANEOUS TISSUE DISORDERS,,SKIN AND SUBCUTANEOUS TISSUE DISORDERS,,MILD,N,,PROBABLE,NOT RECOVERED/NOT RESOLVED,N,N,N,N,N,N,N,TREATMENT,2013-10-27,2013-10-17,2013-12-23,15.0,5.0,72.0
CDISCPILOT01,AE,01-704-1266,12.0,E10,ERYTHEMA,ERYTHEMA,,ERYTHEMA,,HLT_0284,,HLGT_0192,,SKIN AND SUBCUTANEOUS TISSUE DISORDERS,,SKIN AND SUBCUTANEOUS TISSUE DISORDERS,,MODERATE,N,,PROBABLE,RECOVERED/RESOLVED,N,N,N,N,N,N,N,TREATMENT,2014-01-03,2013-10-17,2013-12-23,83.0,5.0,72.0
CDISCPILOT01,AE,01-704-1266,16.0,E18,ERYTHEMA,REDNESS,,ERYTHEMA,,HLT_0284,,HLGT_0192,,SKIN AND SUBCUTANEOUS TISSUE DISORDERS,,SKIN AND SUBCUTANEOUS TISSUE DISORDERS,,MILD,N,,PROBABLE,RECOVERED/RESOLVED,N,N,N,N,N,N,N,TREATMENT,2014-01-03,2013-12-06,2013-12-23,83.0,55.0,72.0
CDISCPILOT01,AE,01-704-1266,10.0,E15,HYPERHIDROSIS,PERSPIRATION EXCESSIVE,,HYPERHIDROSIS,,HLT_0587,,HLGT_0005,,SKIN AND SUBCUTANEOUS TISSUE DISORDERS,,SKIN AND SUBCUTANEOUS TISSUE DISORDERS,,MILD,N,,POSSIBLE,RECOVERED/RESOLVED,N,N,N,N,N,N,N,TREATMENT,2013-12-06,2013-11-09,2013-12-04,55.0,28.0,53.0
CDISCPILOT01,AE,01-704-1266,15.0,E17,PRURITUS,ITCHING,,PRURITUS,,HLT_0778,,HLGT_0695,,SKIN AND SUBCUTANEOUS TISSUE DISORDERS,,SKIN AND SUBCUTANEOUS TISSUE DISORDERS,,MILD,N,,PROBABLE,RECOVERED/RESOLVED,N,N,N,N,N,N,N,TREATMENT,2014-01-03,2013-11-15,2013-12-23,83.0,34.0,72.0
CDISCPILOT01,AE,01-704-1266,1.0,E11,SEASONAL ALLERGY,HAY FEVER,,SEASONAL ALLERGY,,HLT_0714,,HLGT_0782,,IMMUNE SYSTEM DISORDERS,,IMMUNE SYSTEM DISORDERS,,MILD,N,,NONE,NOT RECOVERED/NOT RESOLVED,N,N,N,N,N,N,N,SCREENING,2013-10-11,2013-10-06,,-2.0,-7.0,
CDISCPILOT01,AE,01-704-1323,4.0,E10,OEDEMA,EDEMA,,OEDEMA,,HLT_0656,,HLGT_0036,,GENERAL DISORDERS AND ADMINISTRATION SITE CONDITIONS,,GENERAL DISORDERS AND ADMINISTRATION SITE CONDITIONS,,MILD,N,,PROBABLE,NOT RECOVERED/NOT RESOLVED,N,N,N,N,N,N,N,TREATMENT,2013-08-04,2013-08-04,,28.0,28.0,
CDISCPILOT01,AE,01-704-1323,3.0,E09,PRURITUS,ITCHING,,PRURITUS,,HLT_0778,,HLGT_0695,,SKIN AND SUBCUTANEOUS TISSUE DISORDERS,,SKIN AND SUBCUTANEOUS TISSUE DISORDERS,,MILD,N,,PROBABLE,NOT RECOVERED/NOT RESOLVED,N,N,N,N,N,N,N,TREATMENT,2013-08-04,2013-08-04,,28.0,28.0,
CDISCPILOT01,AE,01-704-1323,2.0,E08,RASH,RASH,,RASH,,HLT_0762,,HLGT_0198,,SKIN AND SUBCUTANEOUS TISSUE DISORDERS,,SKIN AND SUBCUTANEOUS TISSUE DISORDERS,,MILD,N,,PROBABLE,NOT RECOVERED/NOT RESOLVED,N,N,N,N,N,N,N,TREATMENT,2013-08-04,2013-08-04,,28.0,28.0,
CDISCPILOT01,AE,01-704-1323,1.0,E07,VIRAL INFECTION,VIRAL INFECTION,,VIRAL INFECTION,,HLT_0733,,HLGT_0408,,INFECTIONS AND INFESTATIONS,,INFECTIONS AND INFESTATIONS,,MILD,N,,NONE,RECOVERED/RESOLVED,N,N,N,N,N,N,N,TREATMENT,2013-08-04,2013-07-30,2013-08-03,28.0,23.0,27.0
CDISCPILOT01,AE,01-704-1325,2.0,E05,PRURITUS,ITCHING,,PRURITUS,,HLT_0778,,HLGT_0695,,SKIN AND SUBCUTANEOUS TISSUE DISORDERS,,SKIN AND SUBCUTANEOUS TISSUE DISORDERS,,MILD,N,,PROBABLE,NOT RECOVERED/NOT RESOLVED,N,N,N,N,N,N,N,TREATMENT,2014-07-16,2014-07-04,,85.0,73.0,
CDISCPILOT01,AE,01-704-1325,1.0,E04,RASH,RASH,,RASH,,HLT_0762,,HLGT_0198,,SKIN AND SUBCUTANEOUS TISSUE DISORDERS,,SKIN AND SUBCUTANEOUS TISSUE DISORDERS,,MILD,N,,PROBABLE,NOT RECOVERED/NOT RESOLVED,N,N,N,N,N,N,N,TREATMENT,2014-06-04,2014-05-23,,43.0,31.0,
CDISCPILOT01,AE,01-704-1332,4.0,E05,BURNING SENSATION,BURNING SENSATION,,BURNING SENSATION,,HLT_0775,,HLGT_0456,,NERVOUS SYSTEM DISORDERS,,NERVOUS SYSTEM DISORDERS,,MILD,N,,PROBABLE,NOT RECOVERED/NOT RESOLVED,N,N,N,N,N,N,N,TREATMENT,2014-02-03,2014-02-03,,57.0,57.0,
CDISCPILOT01,AE,01-704-1332,6.0,E02,PRURITUS,ITCHING,,PRURITUS,,HLT_0778,,HLGT_0695,,SKIN AND SUBCUTANEOUS TISSUE DISORDERS,,SKIN AND SUBCUTANEOUS TISSUE DISORDERS,,MILD,N,,PROBABLE,RECOVERED/RESOLVED,N,N,N,N,N,N,N,TREATMENT,2014-02-24,2014-01-18,2014-02-24,78.0,41.0,78.0
CDISCPILOT01,AE,01-704-1332,1.0,E01,RASH,RASH,,RASH,,HLT_0762,,HLGT_0198,,SKIN AND SUBCUTANEOUS TISSUE DISORDERS,,SKIN AND SUBCUTANEOUS TISSUE DISORDERS,,MILD,N,,NONE,NOT RECOVERED/NOT RESOLVED,N,N,N,N,N,N,N,TREATMENT,2013-12-23,2013-12-10,2014-02-24,15.0,2.0,78.0
CDISCPILOT01,AE,01-704-1332,5.0,E01,RASH,RASH,,RASH,,HLT_0762,,HLGT_0198,,SKIN AND SUBCUTANEOUS TISSUE DISORDERS,,SKIN AND SUBCUTANEOUS TISSUE DISORDERS,,MODERATE,N,,NONE,RECOVERED/RESOLVED,N,N,N,N,N,N,N,TREATMENT,2014-02-24,2013-12-10,2014-02-24,78.0,2.0,78.0
CDISCPILOT01,AE,01-704-1351,4.0,E03,FLATULENCE,GAS,,FLATULENCE,,HLT_0356,,HLGT_0504,,GASTROINTESTINAL DISORDERS,,GASTROINTESTINAL DISORDERS,,MILD,N,,NONE,RECOVERED/RESOLVED,N,N,N,N,N,N,N,TREATMENT,2014-04-18,2013-10-27,2014-04-04,189.0,16.0,175.0
CDISCPILOT01,AE,01-704-1351,3.0,E02,POLLAKIURIA,URINARY FREQUENCY,,POLLAKIURIA,,HLT_0393,,HLGT_0560,,RENAL AND URINARY DISORDERS,,RENAL AND URINARY DISORDERS,,MILD,N,,NONE,RECOVERED/RESOLVED,N,N,N,N,N,N,N,TREATMENT,2014-04-18,2013-10-27,2014-04-04,189.0,16.0,175.0
CDISCPILOT01,AE,01-704-1388,1.0,E01,HEADACHE,HEADACHE,,HEADACHE,,HLT_0064,,HLGT_0344,,NERVOUS SYSTEM DISORDERS,,NERVOUS SYSTEM DISORDERS,,MODERATE,N,,NONE,NOT RECOVERED/NOT RESOLVED,N,N,N,N,N,N,N,SCREENING,2013-03-27,2012-08-23,,111.0,-106.0,
CDISCPILOT01,AE,01-704-1435,1.0,E08,PARKINSON'S DISEASE,DISEASE PARKINSON'S,,PARKINSON'S DISEASE,,HLT_0279,,HLGT_0313,,NERVOUS SYSTEM DISORDERS,,NERVOUS SYSTEM DISORDERS,,MILD,N,,NONE,NOT RECOVERED/NOT RESOLVED,N,N,N,N,N,N,N,TREATMENT,2013-01-12,2013-01-06,,57.0,51.0,
CDISCPILOT01,AE,01-704-1445,1.0,E06,COMPLETED SUICIDE,SUICIDE,,COMPLETED SUICIDE,,HLT_0625,,HLGT_0013,,PSYCHIATRIC DISORDERS,,PSYCHIATRIC DISORDERS,,SEVERE,N,,NONE,FATAL,N,N,N,Y,N,N,N,TREATMENT,2014-11-01,2014-10-31,2014-10-31,175.0,174.0,174.0
CDISCPILOT01,AE,01-705-1031,1.0,E02,RASH,RASH,,RASH,,HLT_0762,,HLGT_0198,,SKIN AND SUBCUTANEOUS TISSUE DISORDERS,,SKIN AND SUBCUTANEOUS TISSUE DISORDERS,,MILD,N,,POSSIBLE,NOT RECOVERED/NOT RESOLVED,N,N,N,N,N,N,N,TREATMENT,2013-12-25,2013-12-25,,29.0,29.0,
CDISCPILOT01,AE,01-705-1059,1.0,E02,ERYTHEMA,ERYTHEMA,,ERYTHEMA,,HLT_0284,,HLGT_0192,,SKIN AND SUBCUTANEOUS TISSUE DISORDERS,,SKIN AND SUBCUTANEOUS TISSUE DISORDERS,,MODERATE,N,,PROBABLE,NOT RECOVERED/NOT RESOLVED,N,N,N,N,N,N,N,TREATMENT,2013-11-07,2013-11-02,,95.0,90.0,
CDISCPILOT01,AE,01-705-1186,1.0,E02,HYPERBILIRUBINAEMIA,HYPERBILIRUBINEMIA,,HYPERBILIRUBINAEMIA,,HLT_0478,,HLGT_0087,,HEPATOBILIARY DISORDERS,,HEPATOBILIARY DISORDERS,,MODERATE,N,,REMOTE,NOT RECOVERED/NOT RESOLVED,N,N,N,N,N,N,N,TREATMENT,2014-02-07,2014-01-26,,31.0,19.0,
CDISCPILOT01,AE,01-705-1199,2.0,E06,DYSPEPSIA,PYROSIS,,DYSPEPSIA,,HLT_0244,,HLGT_0716,,GASTROINTESTINAL DISORDERS,,GASTROINTESTINAL DISORDERS,,MODERATE,N,,POSSIBLE,RECOVERED/RESOLVED,N,N,N,N,N,N,N,TREATMENT,2013-09-29,2013-09-17,2013-09-29,14.0,2.0,14.0
CDISCPILOT01,AE,01-705-1280,1.0,E01,PRURITUS,PRURITUS,,PRURITUS,,HLT_0778,,HLGT_0695,,SKIN AND SUBCUTANEOUS TISSUE DISORDERS,,SKIN AND SUBCUTANEOUS TISSUE DISORDERS,,MILD,N,,POSSIBLE,NOT RECOVERED/NOT RESOLVED,N,N,N,N,N,N,N,TREATMENT,2014-05-16,2014-04-20,,120.0,94.0,
CDISCPILOT01,AE,01-705-1281,2.0,E05,EXCORIATION,ABRASIONS,,EXCORIATION,,HLT_0738,,HLGT_0511,,"INJURY, POISONING AND PROCEDURAL COMPLICATIONS",,"INJURY, POISONING AND PROCEDURAL COMPLICATIONS",,MODERATE,N,,PROBABLE,NOT RECOVERED/NOT RESOLVED,N,N,N,N,N,N,N,TREATMENT,2014-02-18,2014-01-30,,83.0,64.0,
CDISCPILOT01,AE,01-705-1281,1.0,E04,PRURITUS,PRURITUS,,PRURITUS,,HLT_0778,,HLGT_0695,,SKIN AND SUBCUTANEOUS TISSUE DISORDERS,,SKIN AND SUBCUTANEOUS TISSUE DISORDERS,,MILD,N,,POSSIBLE,NOT RECOVERED/NOT RESOLVED,N,N,N,N,N,N,N,TREATMENT,2014-02-18,2014-01-30,,83.0,64.0,
CDISCPILOT01,AE,01-705-1281,3.0,E04,PRURITUS,PRURITUS,,PRURITUS,,HLT_0778,,HLGT_0695,,SKIN AND SUBCUTANEOUS TISSUE DISORDERS,,SKIN AND SUBCUTANEOUS TISSUE DISORDERS,,MODERATE,N,,POSSIBLE,NOT RECOVERED/NOT RESOLVED,N,N,N,N,N,N,N,TREATMENT,2014-03-17,2014-01-30,,110.0,64.0,
CDISCPILOT01,AE,01-705-1292,2.0,E02,ERYTHEMA,ERYTHEMA,,ERYTHEMA,,HLT_0284,,HLGT_0192,,SKIN AND SUBCUTANEOUS TISSUE DISORDERS,,SKIN AND SUBCUTANEOUS TISSUE DISORDERS,,MODERATE,N,,PROBABLE,NOT RECOVERED/NOT RESOLVED,N,N,N,N,N,N,N,TREATMENT,2014-03-03,2014-02-13,,141.0,123.0,
CDISCPILOT01,AE,01-705-1292,1.0,E01,PRURITUS,ITCHY,,PRURITUS,,HLT_0778,,HLGT_0695,,SKIN AND SUBCUTANEOUS TISSUE DISORDERS,,SKIN AND SUBCUTANEOUS TISSUE DISORDERS,,MILD,N,,PROBABLE,NOT RECOVERED/NOT RESOLVED,N,N,N,N,N,N,N,TREATMENT,2013-10-29,2013-10-28,,16.0,15.0,
CDISCPILOT01,AE,01-705-1303,3.0,E02,PRURITUS,PRURITUS,,PRURITUS,,HLT_0778,,HLGT_0695,,SKIN AND SUBCUTANEOUS TISSUE DISORDERS,,SKIN AND SUBCUTANEOUS TISSUE DISORDERS,,MILD,N,,POSSIBLE,RECOVERED/RESOLVED,N,N,N,N,N,N,N,TREATMENT,2014-04-07,2014-02-05,2014-03-03,113.0,52.0,78.0
CDISCPILOT01,AE,01-705-1303,2.0,E03,RASH,RASH,,RASH,,HLT_0762,,HLGT_0198,,SKIN AND SUBCUTANEOUS TISSUE DISORDERS,,SKIN AND SUBCUTANEOUS TISSUE DISORDERS,,MILD,N,,POSSIBLE,NOT RECOVERED/NOT RESOLVED,N,N,N,N,N,N,N,TREATMENT,2014-02-10,2014-02-05,2014-03-03,57.0,52.0,78.0
CDISCPILOT01,AE,01-705-1303,4.0,E03,RASH,RASH,,RASH,,HLT_0762,,HLGT_0198,,SKIN AND SUBCUTANEOUS TISSUE DISORDERS,,SKIN AND SUBCUTANEOUS TISSUE DISORDERS,,MODERATE,N,,POSSIBLE,RECOVERED/RESOLVED,N,N,N,N,N,N,N,TREATMENT,2014-04-07,2014-02-05,2014-03-03,113.0,52.0,78.0
CDISCPILOT01,AE,01-705-1310,1.0,E02,RASH PRURITIC,PRURITIC RASH,,RASH PRURITIC,,HLT_0127,,HLGT_0753,,SKIN AND SUBCUTANEOUS TISSUE DISORDERS,,SKIN AND SUBCUTANEOUS TISSUE DISORDERS,,MODERATE,N,,POSSIBLE,NOT RECOVERED/NOT RESOLVED,N,N,N,N,N,N,N,TREATMENT,2013-11-22,2013-11-14,,21.0,13.0,
CDISCPILOT01,AE,01-705-1310,2.0,E03,WOUND HAEMORRHAGE,WOUND BLEEDING,,WOUND HAEMORRHAGE,,HLT_0154,,HLGT_0162,,VASCULAR DISORDERS,,VASCULAR DISORDERS,,MODERATE,N,,POSSIBLE,NOT RECOVERED/NOT RESOLVED,N,N,N,N,N,N,N,TREATMENT,2014-01-23,2014-01-09,,83.0,69.0,
CDISCPILOT01,AE,01-705-1349,4.0,E06,ELECTROCARDIOGRAM ST SEGMENT DEPRESSION,ST SEGMENT DEPRESSED,,ELECTROCARDIOGRAM ST SEGMENT DEPRESSION,,HLT_0610,,HLGT_0220,,INVESTIGATIONS,,INVESTIGATIONS,,MILD,N,,REMOTE,NOT RECOVERED/NOT RESOLVED,N,N,N,N,N,N,N,TREATMENT,2013-08-25,2013-08-25,,169.0,169.0,
CDISCPILOT01,AE,01-705-1349,1.0,E03,NAUSEA,NAUSEA,,NAUSEA,,HLT_0742,,HLGT_0326,,GASTROINTESTINAL DISORDERS,,GASTROINTESTINAL DISORDERS,,MILD,N,,REMOTE,RECOVERED/RESOLVED,N,N,N,N,N,N,N,TREATMENT,2013-04-17,2013-04-08,2013-04-08,39.0,30.0,30.0
CDISCPILOT01,AE,01-705-1349,3.0,E05,VENTRICULAR HYPERTROPHY,LEFT VENTRICULAR HYPERTROPHY,,VENTRICULAR HYPERTROPHY,,HLT_0104,,HLGT_0259,,CARDIAC DISORDERS,,CARDIAC DISORDERS,,MILD,N,,REMOTE,NOT RECOVERED/NOT RESOLVED,N,N,N,N,N,N,N,TREATMENT,2013-08-25,2013-08-25,,169.0,169.0,
CDISCPILOT01,AE,01-705-1349,2.0,E04,VOMITING,VOMITING,,VOMITING,,HLT_0016,,HLGT_0350,,GASTROINTESTINAL DISORDERS,,GASTROINTESTINAL DISORDERS,,MILD,N,,REMOTE,RECOVERED/RESOLVED,N,N,N,N,N,N,N,TREATMENT,2013-04-17,2013-04-11,2013-04-11,39.0,33.0,33.0
CDISCPILOT01,AE,01-705-1393,1.0,E01,ABDOMINAL PAIN,ABDOMINAL CRAMPS,,ABDOMINAL PAIN,,HLT_0217,,HLGT_0419,,GASTROINTESTINAL DISORDERS,,GASTROINTESTINAL DISORDERS,,MILD,N,,REMOTE,RECOVERED/RESOLVED,N,N,N,N,N,N,N,TREATMENT,2012-09-27,2012-09-19,2012-09-24,21.0,13.0,18.0
CDISCPILOT01,AE,01-705-1393,3.0,E05,COLON CANCER,COLON CANCER,,COLON CANCER,,HLT_0597,,HLGT_0339,,"NEOPLASMS BENIGN, MALIGNANT AND UNSPECIFIED (INCL CYSTS AND POLYPS)",,"NEOPLASMS BENIGN, MALIGNANT AND UNSPECIFIED (INCL CYSTS AND POLYPS)",,SEVERE,N,,NONE,RECOVERED/RESOLVED,Y,N,N,N,Y,N,N,TREATMENT,2013-02-20,2013-01-21,2013-01-24,167.0,137.0,140.0
CDISCPILOT01,AE,01-705-1393,4.0,E04,PRURITUS,PRURITUS,,PRURITUS,,HLT_0778,,HLGT_0695,,SKIN AND SUBCUTANEOUS TISSUE DISORDERS,,SKIN AND SUBCUTANEOUS TISSUE DISORDERS,,MILD,N,,PROBABLE,RECOVERED/RESOLVED,N,N,N,N,N,N,N,SCREENING,2013-04-25,2011-12-05,2013-02-20,231.0,-277.0,167.0
CDISCPILOT01,AE,01-705-1431,2.0,E04,ANXIETY,FEELING ANXIOUS,,ANXIETY,,HLT_0559,,HLGT_0570,,PSYCHIATRIC DISORDERS,,PSYCHIATRIC DISORDERS,,MILD,N,,POSSIBLE,RECOVERED/RESOLVED,N,N,N,N,N,N,N,TREATMENT,2013-07-07,2013-07-04,2013-07-06,15.0,12.0,14.0
CDISCPILOT01,AE,01-705-1431,1.0,E05,RASH ERYTHEMATOUS,ERYTHEMATOUS RASH,,RASH ERYTHEMATOUS,,HLT_0336,,HLGT_0701,,SKIN AND SUBCUTANEOUS TISSUE DISORDERS,,SKIN AND SUBCUTANEOUS TISSUE DISORDERS,,MILD,N,,PROBABLE,NOT RECOVERED/NOT RESOLVED,N,N,N,N,N,N,N,SCREENING,2013-06-23,2013-06-22,,1.0,-1.0,
CDISCPILOT01,AE,01-706-1041,1.0,E02,ANXIETY,ANXIETY ATTACK,,ANXIETY,,HLT_0559,,HLGT_0570,,PSYCHIATRIC DISORDERS,,PSYCHIATRIC DISORDERS,,MODERATE,N,,REMOTE,NOT RECOVERED/NOT RESOLVED,N,N,N,N,N,N,N,SCREENING,2014-01-14,2012-05,,15.0,,
CDISCPILOT01,AE,01-706-1041,7.0,E02,ANXIETY,ANXIETY ATTACK,,ANXIETY,,HLT_0559,,HLGT_0570,,PSYCHIATRIC DISORDERS,,PSYCHIATRIC DISORDERS,,MILD,N,,REMOTE,NOT RECOVERED/NOT RESOLVED,N,N,N,N,N,N,N,SCREENING,2014-05-06,2012-05,,127.0,,
CDISCPILOT01,AE,01-706-1041,2.0,E01,DIARRHOEA,DIARRHEA,,DIARRHOEA,,HLT_0148,,HLGT_0588,,GASTROINTESTINAL DISORDERS,,GASTROINTESTINAL DISORDERS,,MILD,N,,REMOTE,RECOVERED/RESOLVED,N,N,N,N,N,N,N,TREATMENT,2014-01-14,2014-01-07,2014-01-08,15.0,8.0,9.0
CDISCPILOT01,AE,01-706-1041,5.0,E07,EXCORIATION,ABRASIONS,,EXCORIATION,,HLT_0738,,HLGT_0511,,"INJURY, POISONING AND PROCEDURAL COMPLICATIONS",,"INJURY, POISONING AND PROCEDURAL COMPLICATIONS",,MILD,N,,NONE,RECOVERED/RESOLVED,N,N,N,N,N,N,N,TREATMENT,2014-01-30,2014-01-14,2014-01-28,31.0,15.0,29.0
CDISCPILOT01,AE,01-706-1041,8.0,E03,IRRITABILITY,IRRITABILITY,,IRRITABILITY,,HLT_0627,,HLGT_0461,,PSYCHIATRIC DISORDERS,,PSYCHIATRIC DISORDERS,,MODERATE,N,,POSSIBLE,RECOVERED/RESOLVED,N,N,N,N,N,N,N,TREATMENT,2014-07-29,2014-01-15,2014-07-29,211.0,16.0,211.0
CDISCPILOT01,AE,01-706-1041,9.0,E08,PRURITUS,ITCHING,,PRURITUS,,HLT_0778,,HLGT_0695,,SKIN AND SUBCUTANEOUS TISSUE DISORDERS,,SKIN AND SUBCUTANEOUS TISSUE DISORDERS,,MILD,N,,POSSIBLE,RECOVERED/RESOLVED,N,N,N,N,N,N,N,TREATMENT,2014-07-29,2014-03-04,2014-07-29,211.0,64.0,211.0
CDISCPILOT01,AE,01-706-1049,1.0,E01,SYNCOPE,FAINTING,,SYNCOPE,,HLT_0440,,HLGT_0310,,NERVOUS SYSTEM DISORDERS,,NERVOUS SYSTEM DISORDERS,,MODERATE,N,,POSSIBLE,RECOVERED/RESOLVED,N,N,N,N,N,N,N,TREATMENT,2013-06-11,2013-06-03,2013-06-03,29.0,21.0,21.0
CDISCPILOT01,AE,01-706-1049,2.0,E02,SYNCOPE,SYNCOPAL ATTACK,,SYNCOPE,,HLT_0440,,HLGT_0310,,NERVOUS SYSTEM DISORDERS,,NERVOUS SYSTEM DISORDERS,,SEVERE,N,,PROBABLE,RECOVERED/RESOLVED,N,N,N,N,Y,N,N,TREATMENT,2013-06-25,2013-06-18,2013-06-18,43.0,36.0,36.0
CDISCPILOT01,AE,01-706-1384,6.0,E03,ERYTHEMA,ERYTHEMA,,ERYTHEMA,,HLT_0284,,HLGT_0192,,SKIN AND SUBCUTANEOUS TISSUE DISORDERS,,SKIN AND SUBCUTANEOUS TISSUE DISORDERS,,MODERATE,N,,NONE,RECOVERED/RESOLVED,N,N,N,N,N,N,N,TREATMENT,2013-06-22,2012-09-15,2012-09-29,281.0,1.0,15.0
CDISCPILOT01,AE,01-706-1384,9.0,E01,ERYTHEMA,ERYTHEMA,,ERYTHEMA,,HLT_0284,,HLGT_0192,,SKIN AND SUBCUTANEOUS TISSUE DISORDERS,,SKIN AND SUBCUTANEOUS TISSUE DISORDERS,,MODERATE,N,,PROBABLE,RECOVERED/RESOLVED,N,N,N,N,N,N,N,TREATMENT,2013-06-22,2012-09-23,2012-09-29,281.0,9.0,15.0
CDISCPILOT01,AE,01-706-1384,8.0,E05,EXCORIATION,ABRASIONS,,EXCORIATION,,HLT_0738,,HLGT_0511,,"INJURY, POISONING AND PROCEDURAL COMPLICATIONS",,"INJURY, POISONING AND PROCEDURAL COMPLICATIONS",,MODERATE,N,,NONE,RECOVERED/RESOLVED,N,N,N,N,N,N,N,TREATMENT,2013-06-22,2012-09-15,2012-09-29,281.0,1.0,15.0
CDISCPILOT01,AE,01-706-1384,7.0,E04,PRURITUS,PRURITIS,,PRURITUS,,HLT_0778,,HLGT_0695,,SKIN AND SUBCUTANEOUS TISSUE DISORDERS,,SKIN AND SUBCUTANEOUS TISSUE DISORDERS,,MODERATE,N,,NONE,RECOVERED/RESOLVED,N,N,N,N,N,N,N,TREATMENT,2013-06-22,2012-09-15,2012-09-29,281.0,1.0,15.0
CDISCPILOT01,AE,01-706-1384,10.0,E06,PRURITUS,PRURITIS,,PRURITUS,,HLT_0778,,HLGT_0695,,SKIN AND SUBCUTANEOUS TISSUE DISORDERS,,SKIN AND SUBCUTANEOUS TISSUE DISORDERS,,MODERATE,N,,PROBABLE,RECOVERED/RESOLVED,N,N,N,N,N,N,N,TREATMENT,2013-06-22,2012-09-23,2012-09-29,281.0,9.0,15.0
CDISCPILOT01,AE,01-707-1206,4.0,E03,BLOOD CREATINE PHOSPHOKINASE INCREASED,CPK INCREASE,,BLOOD CREATINE PHOSPHOKINASE INCREASED,,HLT_0404,,HLGT_0008,,INVESTIGATIONS,,INVESTIGATIONS,,MODERATE,N,,POSSIBLE,RECOVERED/RESOLVED,N,N,N,N,N,N,N,TREATMENT,2013-12-23,2013-11-26,2013-12-09,57.0,30.0,43.0
CDISCPILOT01,AE,01-707-1206,8.0,E06,CONJUNCTIVITIS,CONJUNCTIVITIS,,CONJUNCTIVITIS,,HLT_0584,,HLGT_0335,,EYE DISORDERS,,EYE DISORDERS,,MODERATE,N,,REMOTE,RECOVERED/RESOLVED,N,N,N,N,N,N,N,TREATMENT,2014-03-16,2014-02-08,2014-02-22,140.0,104.0,118.0
CDISCPILOT01,AE,01-707-1206,5.0,E05,POSTNASAL DRIP,POSTNASAL DRIP,,POSTNASAL DRIP,,HLT_0172,,HLGT_0032,,"RESPIRATORY, THORACIC AND MEDIASTINAL DISORDERS",,"RESPIRATORY, THORACIC AND MEDIASTINAL DISORDERS",,MILD,N,,NONE,RECOVERED/RESOLVED,N,N,N,N,N,N,N,TREATMENT,2013-12-23,2013-12-03,2013-12-10,57.0,37.0,44.0
CDISCPILOT01,AE,01-707-1206,6.0,E04,SINUS ARRHYTHMIA,SINUS ARRHYTHMIA,,SINUS ARRHYTHMIA,,HLT_0094,,HLGT_0630,,CARDIAC DISORDERS,,CARDIAC DISORDERS,,MILD,N,,POSSIBLE,RECOVERED/RESOLVED,N,N,N,N,N,N,N,TREATMENT,2014-01-19,2013-11-25,2013-12-23,84.0,29.0,57.0
CDISCPILOT01,AE,01-708-1019,5.0,E06,DIZZINESS,DIZZINESS,,DIZZINESS,,HLT_0619,,HLGT_0751,,NERVOUS SYSTEM DISORDERS,,NERVOUS SYSTEM DISORDERS,,MILD,N,,POSSIBLE,RECOVERED/RESOLVED,N,N,N,N,N,N,N,TREATMENT,2014-01-23,2014-01-01,2014-01-01,35.0,13.0,13.0
CDISCPILOT01,AE,01-708-1019,1.0,E02,HEADACHE,FRONTAL HEADACHE,,HEADACHE,,HLT_0064,,HLGT_0344,,NERVOUS SYSTEM DISORDERS,,NERVOUS SYSTEM DISORDERS,,SEVERE,N,,POSSIBLE,RECOVERED/RESOLVED,N,N,N,N,N,N,N,TREATMENT,2014-01-23,2013-12-31,2013-12-31,35.0,12.0,12.0
CDISCPILOT01,AE,01-708-1019,2.0,E03,STUPOR,STUPOR,,STUPOR,,HLT_0595,,HLGT_0513,,NERVOUS SYSTEM DISORDERS,,NERVOUS SYSTEM DISORDERS,,SEVERE,N,,POSSIBLE,RECOVERED/RESOLVED,N,N,N,N,N,N,N,TREATMENT,2014-01-23,2014-01-01,2014-01-01,35.0,13.0,13.0
CDISCPILOT01,AE,01-708-1019,3.0,E04,TRANSIENT ISCHAEMIC ATTACK,TRANSIENT ISCHEMIC ATTACKS,,TRANSIENT ISCHAEMIC ATTACK,,HLT_0041,,HLGT_0433,,NERVOUS SYSTEM DISORDERS,,NERVOUS SYSTEM DISORDERS,,SEVERE,N,,POSSIBLE,RECOVERED/RESOLVED,N,N,N,N,N,N,N,TREATMENT,2014-01-23,2014-01-01,2014-01-01,35.0,13.0,13.0
CDISCPILOT01,AE,01-708-1019,4.0,E05,VISION BLURRED,BLURRED VISION,,VISION BLURRED,,HLT_0120,,HLGT_0598,,EYE DISORDERS,,EYE DISORDERS,,MILD,N,,POSSIBLE,RECOVERED/RESOLVED,N,N,N,N,N,N,N,TREATMENT,2014-01-23,2014-01-01,2014-01-01,35.0,13.0,13.0
CDISCPILOT01,AE,01-708-1032,1.0,E05,APPLICATION SITE VESICLES,APPLICATION SITE BLISTER,,APPLICATION SITE VESICLES,,HLT_0180,,HLGT_0576,,GENERAL DISORDERS AND ADMINISTRATION SITE CONDITIONS,,GENERAL DISORDERS AND ADMINISTRATION SITE CONDITIONS,,MODERATE,N,,PROBABLE,RECOVERED/RESOLVED,N,N,N,N,N,N,N,TREATMENT,2013-03-09,2013-02-26,2013-03-09,29.0,18.0,29.0
CDISCPILOT01,AE,01-708-1084,2.0,E02,DIZZINESS,DIZZINESS,,DIZZINESS,,HLT_0619,,HLGT_0751,,NERVOUS SYSTEM DISORDERS,,NERVOUS SYSTEM DISORDERS,,MILD,N,,POSSIBLE,RECOVERED/RESOLVED,N,N,N,N,N,N,N,TREATMENT,2013-06-09,2013-05-23,2013-05-23,32.0,15.0,15.0
CDISCPILOT01,AE,01-708-1084,4.0,E07,MYOCARDIAL INFARCTION,MYOCARDIAL INFARCTION,,MYOCARDIAL INFARCTION,,HLT_0649,,HLGT_0688,,CARDIAC DISORDERS,,CARDIAC DISORDERS,,MILD,N,,REMOTE,RECOVERED/RESOLVED,N,N,N,N,N,N,N,TREATMENT,2013-06-11,2013-06-09,2013-06-09,34.0,32.0,32.0
CDISCPILOT01,AE,01-708-1084,6.0,E06,SINUS BRADYCARDIA,SINUS BRADYCARDIA,,SINUS BRADYCARDIA,,HLT_0644,,HLGT_0500,,CARDIAC DISORDERS,,CARDIAC DISORDERS,,MILD,N,,REMOTE,RECOVERED/RESOLVED,N,N,N,N,N,N,N,TREATMENT,2013-07-07,2013-06-23,2013-06-23,60.0,46.0,46.0
CDISCPILOT01,AE,01-708-1087,3.0,E03,DIZZINESS,DIZZINESS,,DIZZINESS,,HLT_0619,,HLGT_0751,,NERVOUS SYSTEM DISORDERS,,NERVOUS SYSTEM DISORDERS,,MILD,N,,POSSIBLE,RECOVERED/RESOLVED,N,N,N,N,N,N,N,TREATMENT,2013-02-16,2013-02-04,2013-02-08,118.0,106.0,110.0
CDISCPILOT01,AE,01-708-1087,4.0,E02,HEADACHE,HEADACHE,,HEADACHE,,HLT_0064,,HLGT_0344,,NERVOUS SYSTEM DISORDERS,,NERVOUS SYSTEM DISORDERS,,MILD,N,,NONE,NOT RECOVERED/NOT RESOLVED,N,N,N,N,N,N,N,TREATMENT,2013-02-16,2013-02-16,,118.0,118.0,
CDISCPILOT01,AE,01-708-1087,2.0,E05,HEART RATE IRREGULAR,HEARTBEATS IRREGULAR,,HEART RATE IRREGULAR,,HLT_0765,,HLGT_0140,,INVESTIGATIONS,,INVESTIGATIONS,,MILD,N,,POSSIBLE,RECOVERED/RESOLVED,N,N,N,N,N,N,N,TREATMENT,2013-02-16,2013-01-19,2013-01-19,118.0,90.0,90.0
CDISCPILOT01,AE,01-708-1087,6.0,E06,HEART RATE IRREGULAR,HEARTBEATS IRREGULAR,,HEART RATE IRREGULAR,,HLT_0765,,HLGT_0140,,INVESTIGATIONS,,INVESTIGATIONS,,MILD,N,,POSSIBLE,RECOVERED/RESOLVED,N,N,N,N,N,N,N,TREATMENT,2013-04-10,2013-03-16,2013-03-16,171.0,146.0,146.0
CDISCPILOT01,AE,01-708-1158,1.0,E05,AGITATION,AGITATION,,AGITATION,,HLT_0140,,HLGT_0170,,PSYCHIATRIC DISORDERS,,PSYCHIATRIC DISORDERS,,MILD,N,,REMOTE,NOT RECOVERED/NOT RESOLVED,N,N,N,N,N,N,N,TREATMENT,2014-02-26,2014-02-25,,19.0,18.0,
CDISCPILOT01,AE,01-708-1158,2.0,E07,ERYTHEMA,ERYTHEMA,,ERYTHEMA,,HLT_0284,,HLGT_0192,,SKIN AND SUBCUTANEOUS TISSUE DISORDERS,,SKIN AND SUBCUTANEOUS TISSUE DISORDERS,,MILD,N,,PROBABLE,RECOVERED/RESOLVED,N,N,N,N,N,N,N,TREATMENT,2014-03-22,2014-03-22,2014-03-22,43.0,43.0,43.0
CDISCPILOT01,AE,01-708-1178,9.0,E13,ALCOHOL USE,ALCOHOL USE,,ALCOHOL USE,,HLT_0138,,HLGT_0182,,SOCIAL CIRCUMSTANCES,,SOCIAL CIRCUMSTANCES,,MILD,N,,NONE,RECOVERED/RESOLVED,N,N,N,N,N,N,N,TREATMENT,2014-04-06,2014-03-24,2014-03-24,99.0,86.0,86.0
CDISCPILOT01,AE,01-708-1178,5.0,E06,APPLICATION SITE PRURITUS,APPLICATION SITE ITCHING,,APPLICATION SITE PRURITUS,,HLT_0317,,HLGT_0338,,GENERAL DISORDERS AND ADMINISTRATION SITE CONDITIONS,,GENERAL DISORDERS AND ADMINISTRATION SITE CONDITIONS,,MILD,N,,PROBABLE,RECOVERED/RESOLVED,N,N,N,N,N,N,N,TREATMENT,2014-04-06,2014-03-09,2014-04-06,99.0,71.0,99.0
CDISCPILOT01,AE,01-708-1178,7.0,E10,ATRIAL FIBRILLATION,ATRIAL FIBRILLATION,,ATRIAL FIBRILLATION,,HLT_0365,,HLGT_0012,,CARDIAC DISORDERS,,CARDIAC DISORDERS,,SEVERE,N,,POSSIBLE,RECOVERED/RESOLVED,N,N,N,N,Y,N,N,TREATMENT,2014-04-06,2014-03-24,2014-03-26,99.0,86.0,88.0
CDISCPILOT01,AE,01-708-1178,8.0,E11,CYSTITIS,BLADDER INFECTION,,CYSTITIS,,HLT_0739,,HLGT_0129,,INFECTIONS AND INFESTATIONS,,INFECTIONS AND INFESTATIONS,,MILD,N,,REMOTE,RECOVERED/RESOLVED,N,N,N,N,N,N,N,TREATMENT,2014-04-06,2014-03-24,2014-03-28,99.0,86.0,90.0
CDISCPILOT01,AE,01-708-1178,6.0,E09,DIZZINESS,LIGHT-HEADED,,DIZZINESS,,HLT_0619,,HLGT_0751,,NERVOUS SYSTEM DISORDERS,,NERVOUS SYSTEM DISORDERS,,SEVERE,N,,POSSIBLE,RECOVERED/RESOLVED,N,N,N,N,Y,N,N,TREATMENT,2014-04-06,2014-03-24,2014-03-26,99.0,86.0,88.0
CDISCPILOT01,AE,01-708-1178,1.0,E03,FLANK PAIN,FLANK PAIN,,FLANK PAIN,,HLT_0484,,HLGT_0543,,MUSCULOSKELETAL AND CONNECTIVE TISSUE DISORDERS,,MUSCULOSKELETAL AND CONNECTIVE TISSUE DISORDERS,,MILD,N,,NONE,NOT RECOVERED/NOT RESOLVED,N,N,N,N,N,N,N,SCREENING,2013-12-19,2013-12-19,,-10.0,-10.0,
CDISCPILOT01,AE,01-708-1178,2.0,E05,NASOPHARYNGITIS,COLD,,NASOPHARYNGITIS,,HLT_0036,,HLGT_0709,,INFECTIONS AND INFESTATIONS,,INFECTIONS AND INFESTATIONS,,MILD,N,,NONE,RECOVERED/RESOLVED,N,N,N,N,N,N,N,TREATMENT,2014-03-09,2014-03-01,2014-03-08,71.0,63.0,70.0
CDISCPILOT01,AE,01-708-1178,4.0,E08,VENTRICULAR SEPTAL DEFECT,VENTRICULAR SEPTAL DEFECT,,VENTRICULAR SEPTAL DEFECT,,HLT_0589,,HLGT_0747,,"CONGENITAL, FAMILIAL AND GENETIC DISORDERS",,"CONGENITAL, FAMILIAL AND GENETIC DISORDERS",,MILD,N,,NONE,NOT RECOVERED/NOT RESOLVED,N,N,N,N,N,N,N,TREATMENT,2014-03-09,2014-03-09,,71.0,71.0,
CDISCPILOT01,AE,01-708-1213,2.0,E03,ATRIAL FIBRILLATION,ATRIAL FIBRILLATION,,ATRIAL FIBRILLATION,,HLT_0365,,HLGT_0012,,CARDIAC DISORDERS,,CARDIAC DISORDERS,,MILD,N,,POSSIBLE,RECOVERED/RESOLVED,N,N,N,N,N,N,N,TREATMENT,2013-02-26,2013-02-22,2013-02-22,18.0,14.0,14.0
CDISCPILOT01,AE,01-708-1216,4.0,E05,APPLICATION SITE ERYTHEMA,APPLICATION SITE REDNESS,,APPLICATION SITE ERYTHEMA,,HLT_0617,,HLGT_0152,,GENERAL DISORDERS AND ADMINISTRATION SITE CONDITIONS,,GENERAL DISORDERS AND ADMINISTRATION SITE CONDITIONS,,MILD,N,,PROBABLE,RECOVERED/RESOLVED,N,N,N,N,N,N,N,TREATMENT,2013-01-09,2012-11-06,2012-12-13,78.0,14.0,51.0
CDISCPILOT01,AE,01-708-1216,1.0,E01,APPLICATION SITE PRURITUS,APPLICATION SITE ITCHING,,APPLICATION SITE PRURITUS,,HLT_0317,,HLGT_0338,,GENERAL DISORDERS AND ADMINISTRATION SITE CONDITIONS,,GENERAL DISORDERS AND ADMINISTRATION SITE CONDITIONS,,MILD,N,,PROBABLE,NOT RECOVERED/NOT RESOLVED,N,N,N,N,N,N,N,TREATMENT,2012-11-08,2012-11-06,,16.0,14.0,
CDISCPILOT01,AE,01-708-1216,3.0,E02,APPLICATION SITE SWELLING,APPLICATION SITE SWELLING,,APPLICATION SITE SWELLING,,HLT_0105,,HLGT_0236,,GENERAL DISORDERS AND ADMINISTRATION SITE CONDITIONS,,GENERAL DISORDERS AND ADMINISTRATION SITE CONDITIONS,,MILD,N,,PROBABLE,NOT RECOVERED/NOT RESOLVED,N,N,N,N,N,N,N,TREATMENT,2012-11-22,2012-11-22,,30.0,30.0,
CDISCPILOT01,AE,01-708-1253,5.0,E04,CONJUNCTIVITIS,CONJUNCTIVITIS,,CONJUNCTIVITIS,,HLT_0584,,HLGT_0335,,EYE DISORDERS,,EYE DISORDERS,,MILD,N,,NONE,RECOVERED/RESOLVED,N,N,N,N,N,N,N,SCREENING,2013-05-21,2013-05-06,2013-05-16,15.0,-1.0,10.0
CDISCPILOT01,AE,01-708-1253,4.0,E03,COUGH,COUGH,,COUGH,,HLT_0701,,HLGT_0280,,"RESPIRATORY, THORACIC AND MEDIASTINAL DISORDERS",,"RESPIRATORY, THORACIC AND MEDIASTINAL DISORDERS",,MILD,N,,NONE,RECOVERED/RESOLVED,N,N,N,N,N,N,N,SCREENING,2013-05-21,2013-05-06,2013-05-16,15.0,-1.0,10.0
CDISCPILOT01,AE,01-708-1253,8.0,E05,DIZZINESS,DIZZINESS,,DIZZINESS,,HLT_0619,,HLGT_0751,,NERVOUS SYSTEM DISORDERS,,NERVOUS SYSTEM DISORDERS,,MILD,N,,POSSIBLE,RECOVERED/RESOLVED,N,N,N,N,N,N,N,TREATMENT,2013-06-09,2013-06-07,2013-06-07,34.0,32.0,32.0
CDISCPILOT01,AE,01-708-1253,6.0,E02,HEART RATE INCREASED,HEART RATE INCREASED,,HEART RATE INCREASED,,HLT_0646,,HLGT_0673,,INVESTIGATIONS,,INVESTIGATIONS,,MILD,N,,POSSIBLE,RECOVERED/RESOLVED,N,N,N,N,N,N,N,TREATMENT,2013-05-21,2013-05-07,2013-05-10,15.0,1.0,4.0
CDISCPILOT01,AE,01-708-1272,4.0,E11,APPLICATION SITE DERMATITIS,APPLICATION SITE RASH,,APPLICATION SITE DERMATITIS,,HLT_0343,,HLGT_0241,,GENERAL DISORDERS AND ADMINISTRATION SITE CONDITIONS,,GENERAL DISORDERS AND ADMINISTRATION SITE CONDITIONS,,MILD,N,,PROBABLE,RECOVERED/RESOLVED,N,N,N,N,N,N,N,TREATMENT,2013-03-07,2013-02-27,2013-02-27,30.0,22.0,22.0
CDISCPILOT01,AE,01-708-1272,8.0,E08,COUGH,COUGH,,COUGH,,HLT_0701,,HLGT_0280,,"RESPIRATORY, THORACIC AND MEDIASTINAL DISORDERS",,"RESPIRATORY, THORACIC AND MEDIASTINAL DISORDERS",,MILD,N,,NONE,RECOVERED/RESOLVED,N,N,N,N,N,N,N,TREATMENT,2013-03-09,2013-03-01,2013-03-07,32.0,24.0,30.0
CDISCPILOT01,AE,01-708-1272,1.0,E12,DIARRHOEA,DIARRHEA,,DIARRHOEA,,HLT_0148,,HLGT_0588,,GASTROINTESTINAL DISORDERS,,GASTROINTESTINAL DISORDERS,,MILD,N,,NONE,RECOVERED/RESOLVED,N,N,N,N,N,N,N,TREATMENT,2013-02-21,2013-02-11,2013-02-11,16.0,6.0,6.0
CDISCPILOT01,AE,01-708-1272,10.0,E10,HEADACHE,HEADACHE,,HEADACHE,,HLT_0064,,HLGT_0344,,NERVOUS SYSTEM DISORDERS,,NERVOUS SYSTEM DISORDERS,,MILD,N,,NONE,RECOVERED/RESOLVED,N,N,N,N,N,N,N,TREATMENT,2013-03-09,2013-03-07,2013-03-07,32.0,30.0,30.0
CDISCPILOT01,AE,01-708-1272,11.0,E14,HOT FLUSH,HOT FLASHES,,HOT FLUSH,,HLT_0737,,HLGT_0773,,VASCULAR DISORDERS,,VASCULAR DISORDERS,,MILD,N,,NONE,RECOVERED/RESOLVED,N,N,N,N,N,N,N,TREATMENT,2013-03-20,2013-03-19,2013-03-19,43.0,42.0,42.0
CDISCPILOT01,AE,01-708-1272,2.0,E13,MUSCLE SPASMS,LEG CRAMPS,,MUSCLE SPASMS,,HLT_0078,,HLGT_0750,,MUSCULOSKELETAL AND CONNECTIVE TISSUE DISORDERS,,MUSCULOSKELETAL AND CONNECTIVE TISSUE DISORDERS,,SEVERE,N,,NONE,RECOVERED/RESOLVED,N,N,N,N,N,N,N,TREATMENT,2013-02-21,2013-02-18,2013-02-18,16.0,13.0,13.0
CDISCPILOT01,AE,01-708-1272,9.0,E09,NASOPHARYNGITIS,COLD,,NASOPHARYNGITIS,,HLT_0036,,HLGT_0709,,INFECTIONS AND INFESTATIONS,,INFECTIONS AND INFESTATIONS,,MILD,N,,NONE,RECOVERED/RESOLVED,N,N,N,N,N,N,N,TREATMENT,2013-03-09,2013-03-01,2013-03-07,32.0,24.0,30.0
CDISCPILOT01,AE,01-708-1272,12.0,E05,VENTRICULAR EXTRASYSTOLES,VENTRICULAR BIGEMINY,,VENTRICULAR EXTRASYSTOLES,,HLT_0050,,HLGT_0594,,CARDIAC DISORDERS,,CARDIAC DISORDERS,,MILD,N,,REMOTE,RECOVERED/RESOLVED,N,N,N,N,N,N,N,TREATMENT,2013-04-04,2013-02-21,2013-03-20,58.0,16.0,43.0
CDISCPILOT01,AE,01-708-1286,3.0,E08,ABDOMINAL PAIN,ABDOMINAL PAIN,,ABDOMINAL PAIN,,HLT_0217,,HLGT_0419,,GASTROINTESTINAL DISORDERS,,GASTROINTESTINAL DISORDERS,,MILD,N,,REMOTE,RECOVERED/RESOLVED,N,N,N,N,N,N,N,TREATMENT,2014-02-23,2014-02-18,2014-02-18,167.0,162.0,162.0
CDISCPILOT01,AE,01-708-1286,1.0,E06,APPLICATION SITE PRURITUS,APPLICATION SITE ITCHING,,APPLICATION SITE PRURITUS,,HLT_0317,,HLGT_0338,,GENERAL DISORDERS AND ADMINISTRATION SITE CONDITIONS,,GENERAL DISORDERS AND ADMINISTRATION SITE CONDITIONS,,MILD,N,,PROBABLE,NOT RECOVERED/NOT RESOLVED,N,N,N,N,N,N,N,TREATMENT,2013-09-23,2013-09-12,,14.0,3.0,
CDISCPILOT01,AE,01-708-1286,4.0,E09,CONSTIPATION,CONSTIPATION,,CONSTIPATION,,HLT_0402,,HLGT_0635,,GASTROINTESTINAL DISORDERS,,GASTROINTESTINAL DISORDERS,,MILD,N,,REMOTE,RECOVERED/RESOLVED,N,N,N,N,N,N,N,TREATMENT,2014-02-23,2014-02-18,2014-02-18,167.0,162.0,162.0
CDISCPILOT01,AE,01-708-1286,2.0,E04,MYOCARDIAL INFARCTION,INFERIOR MYOCARDIAL INFARCTION,,MYOCARDIAL INFARCTION,,HLT_0649,,HLGT_0688,,CARDIAC DISORDERS,,CARDIAC DISORDERS,,MILD,N,,REMOTE,NOT RECOVERED/NOT RESOLVED,N,N,N,N,N,N,N,TREATMENT,2013-09-23,2013-09-23,,14.0,14.0,
CDISCPILOT01,AE,01-708-1296,4.0,E04,APPLICATION SITE PRURITUS,APPLICATION SITE ITCHING,,APPLICATION SITE PRURITUS,,HLT_0317,,HLGT_0338,,GENERAL DISORDERS AND ADMINISTRATION SITE CONDITIONS,,GENERAL DISORDERS AND ADMINISTRATION SITE CONDITIONS,,MILD,N,,PROBABLE,RECOVERED/RESOLVED,N,N,N,N,N,N,N,TREATMENT,2013-10-02,2013-09-04,2013-09-18,111.0,83.0,97.0
CDISCPILOT01,AE,01-708-1296,6.0,E05,APPLICATION SITE VESICLES,APPLICATION SITE BLISTER,,APPLICATION SITE VESICLES,,HLT_0180,,HLGT_0576,,GENERAL DISORDERS AND ADMINISTRATION SITE CONDITIONS,,GENERAL DISORDERS AND ADMINISTRATION SITE CONDITIONS,,MILD,N,,PROBABLE,RECOVERED/RESOLVED,N,N,N,N,N,N,N,TREATMENT,2013-11-27,2013-10-04,2013-10-30,167.0,113.0,139.0
CDISCPILOT01,AE,01-708-1296,2.0,E03,ATRIAL HYPERTROPHY,LEFT ATRIAL HYPERTROPHY,,ATRIAL HYPERTROPHY,,HLT_0271,,HLGT_0067,,CARDIAC DISORDERS,,CARDIAC DISORDERS,,MILD,N,,REMOTE,RECOVERED/RESOLVED,N,N,N,N,N,N,N,TREATMENT,2013-07-10,2013-06-27,2013-06-27,27.0,14.0,14.0
CDISCPILOT01,AE,01-708-1296,7.0,E07,PAIN IN EXTREMITY,PAIN IN THIGH,,PAIN IN EXTREMITY,,HLT_0213,,HLGT_0764,,MUSCULOSKELETAL AND CONNECTIVE TISSUE DISORDERS,,MUSCULOSKELETAL AND CONNECTIVE TISSUE DISORDERS,,MILD,N,,REMOTE,RECOVERED/RESOLVED,N,N,N,N,N,N,N,TREATMENT,2013-12-12,2013-12-07,2013-12-07,182.0,177.0,177.0
CDISCPILOT01,AE,01-708-1297,1.0,E02,APPLICATION SITE PRURITUS,APPLICATION SITE ITCHING,,APPLICATION SITE PRURITUS,,HLT_0317,,HLGT_0338,,GENERAL DISORDERS AND ADMINISTRATION SITE CONDITIONS,,GENERAL DISORDERS AND ADMINISTRATION SITE CONDITIONS,,MILD,N,,PROBABLE,NOT RECOVERED/NOT RESOLVED,N,N,N,N,N,N,N,TREATMENT,2013-04-16,2013-04-02,,82.0,68.0,
CDISCPILOT01,AE,01-708-1297,2.0,E03,APPLICATION SITE SWELLING,APPLICATION SITE SWELLING,,APPLICATION SITE SWELLING,,HLT_0105,,HLGT_0236,,GENERAL DISORDERS AND ADMINISTRATION SITE CONDITIONS,,GENERAL DISORDERS AND ADMINISTRATION SITE CONDITIONS,,MILD,N,,PROBABLE,NOT RECOVERED/NOT RESOLVED,N,N,N,N,N,N,N,TREATMENT,2013-04-16,2013-04-02,,82.0,68.0,
CDISCPILOT01,AE,01-708-1297,3.0,E04,SINUS BRADYCARDIA,SINUS BRADYCARDIA,,SINUS BRADYCARDIA,,HLT_0644,,HLGT_0500,,CARDIAC DISORDERS,,CARDIAC DISORDERS,,MILD,N,,REMOTE,NOT RECOVERED/NOT RESOLVED,N,N,N,N,N,N,N,TREATMENT,2013-05-08,2013-05-08,,104.0,104.0,
CDISCPILOT01,AE,01-708-1316,2.0,E04,APPLICATION SITE ERYTHEMA,APPLICATION SITE REDNESS,,APPLICATION SITE ERYTHEMA,,HLT_0617,,HLGT_0152,,GENERAL DISORDERS AND ADMINISTRATION SITE CONDITIONS,,GENERAL DISORDERS AND ADMINISTRATION SITE CONDITIONS,,MILD,N,,PROBABLE,NOT RECOVERED/NOT RESOLVED,N,N,N,N,N,N,N,TREATMENT,2014-02-15,2014-02-15,,177.0,177.0,
CDISCPILOT01,AE,01-708-1316,1.0,E05,HEADACHE,HEADACHE,,HEADACHE,,HLT_0064,,HLGT_0344,,NERVOUS SYSTEM DISORDERS,,NERVOUS SYSTEM DISORDERS,,MILD,N,,POSSIBLE,NOT RECOVERED/NOT RESOLVED,N,N,N,N,N,N,N,TREATMENT,2014-02-15,2014-01-29,,177.0,160.0,
CDISCPILOT01,AE,01-708-1336,7.0,E11,APPLICATION SITE ERYTHEMA,APPLICATION SITE REDNESS,,APPLICATION SITE ERYTHEMA,,HLT_0617,,HLGT_0152,,GENERAL DISORDERS AND ADMINISTRATION SITE CONDITIONS,,GENERAL DISORDERS AND ADMINISTRATION SITE CONDITIONS,,MILD,N,,PROBABLE,RECOVERED/RESOLVED,N,N,N,N,N,N,N,TREATMENT,2013-07-05,2013-04-10,2013-06-05,211.0,125.0,181.0
CDISCPILOT01,AE,01-708-1336,2.0,E08,APPLICATION SITE PRURITUS,APPLICATION SITE ITCHING,,APPLICATION SITE PRURITUS,,HLT_0317,,HLGT_0338,,GENERAL DISORDERS AND ADMINISTRATION SITE CONDITIONS,,GENERAL DISORDERS AND ADMINISTRATION SITE CONDITIONS,,MILD,N,,PROBABLE,RECOVERED/RESOLVED,N,N,N,N,N,N,N,TREATMENT,2013-01-15,2013-01-12,2013-01-12,40.0,37.0,37.0
CDISCPILOT01,AE,01-708-1336,6.0,E10,APPLICATION SITE PRURITUS,APPLICATION SITE ITCHING,,APPLICATION SITE PRURITUS,,HLT_0317,,HLGT_0338,,GENERAL DISORDERS AND ADMINISTRATION SITE CONDITIONS,,GENERAL DISORDERS AND ADMINISTRATION SITE CONDITIONS,,MILD,N,,PROBABLE,RECOVERED/RESOLVED,N,N,N,N,N,N,N,TREATMENT,2013-07-05,2013-04-10,2013-06-05,211.0,125.0,181.0
CDISCPILOT01,AE,01-708-1336,1.0,E06,DIZZINESS,LIGHTHEADEDNESS,,DIZZINESS,,HLT_0619,,HLGT_0751,,NERVOUS SYSTEM DISORDERS,,NERVOUS SYSTEM DISORDERS,,MILD,N,,POSSIBLE,RECOVERED/RESOLVED,N,N,N,N,N,N,N,TREATMENT,2012-12-21,2012-12-18,2012-12-18,15.0,12.0,12.0
CDISCPILOT01,AE,01-708-1336,3.0,E09,DIZZINESS,LIGHT HEADEDNESS,,DIZZINESS,,HLT_0619,,HLGT_0751,,NERVOUS SYSTEM DISORDERS,,NERVOUS SYSTEM DISORDERS,,MILD,N,,POSSIBLE,RECOVERED/RESOLVED,N,N,N,N,N,N,N,TREATMENT,2013-02-27,2013-02-02,2013-02-02,83.0,58.0,58.0
CDISCPILOT01,AE,01-708-1347,7.0,E04,APPLICATION SITE ERYTHEMA,APPLICATION SITE REDNESS,,APPLICATION SITE ERYTHEMA,,HLT_0617,,HLGT_0152,,GENERAL DISORDERS AND ADMINISTRATION SITE CONDITIONS,,GENERAL DISORDERS AND ADMINISTRATION SITE CONDITIONS,,MODERATE,N,,PROBABLE,RECOVERED/RESOLVED,N,N,N,N,N,N,N,TREATMENT,2013-08-02,2013-06-13,2013-06-25,105.0,55.0,67.0
CDISCPILOT01,AE,01-708-1347,8.0,E05,APPLICATION SITE SWELLING,APPLICATION SITE SWELLING,,APPLICATION SITE SWELLING,,HLT_0105,,HLGT_0236,,GENERAL DISORDERS AND ADMINISTRATION SITE CONDITIONS,,GENERAL DISORDERS AND ADMINISTRATION SITE CONDITIONS,,MODERATE,N,,PROBABLE,RECOVERED/RESOLVED,N,N,N,N,N,N,N,TREATMENT,2013-08-02,2013-06-13,2013-06-25,105.0,55.0,67.0
CDISCPILOT01,AE,01-708-1347,6.0,E03,ERYTHEMA,ERYTHEMA,,ERYTHEMA,,HLT_0284,,HLGT_0192,,SKIN AND SUBCUTANEOUS TISSUE DISORDERS,,SKIN AND SUBCUTANEOUS TISSUE DISORDERS,,MODERATE,N,,PROBABLE,RECOVERED/RESOLVED,N,N,N,N,N,N,N,TREATMENT,2013-08-02,2013-06-13,2013-06-25,105.0,55.0,67.0
CDISCPILOT01,AE,01-708-1347,5.0,E02,PRURITUS,ITCHING,,PRURITUS,,HLT_0778,,HLGT_0695,,SKIN AND SUBCUTANEOUS TISSUE DISORDERS,,SKIN AND SUBCUTANEOUS TISSUE DISORDERS,,MILD,N,,PROBABLE,RECOVERED/RESOLVED,N,N,N,N,N,N,N,TREATMENT,2013-08-02,2013-06-13,2013-06-25,105.0,55.0,67.0
CDISCPILOT01,AE,01-708-1348,3.0,E05,APPLICATION SITE PRURITUS,APPLICATION SITE ITCHING,,APPLICATION SITE PRURITUS,,HLT_0317,,HLGT_0338,,GENERAL DISORDERS AND ADMINISTRATION SITE CONDITIONS,,GENERAL DISORDERS AND ADMINISTRATION SITE CONDITIONS,,MILD,N,,PROBABLE,NOT RECOVERED/NOT RESOLVED,N,N,N,N,N,N,N,TREATMENT,2013-12-01,2013-12-01,,119.0,119.0,
CDISCPILOT01,AE,01-708-1348,2.0,E04,MYOCARDIAL INFARCTION,ANTEROSEPTAL INFARCTION,,MYOCARDIAL INFARCTION,,HLT_0649,,HLGT_0688,,CARDIAC DISORDERS,,CARDIAC DISORDERS,,MILD,N,,POSSIBLE,RECOVERED/RESOLVED,N,N,N,N,N,N,N,TREATMENT,2013-09-02,2013-08-18,2013-08-31,29.0,14.0,27.0
CDISCPILOT01,AE,01-708-1353,2.0,E09,DIZZINESS,DIZZINESS,,DIZZINESS,,HLT_0619,,HLGT_0751,,NERVOUS SYSTEM DISORDERS,,NERVOUS SYSTEM DISORDERS,,MILD,N,,REMOTE,RECOVERED/RESOLVED,N,N,N,N,N,N,N,TREATMENT,2013-09-10,2013-08-18,2013-09-10,69.0,46.0,69.0
CDISCPILOT01,AE,01-708-1353,3.0,E10,HYPOTENSION,LOW BLOOD PRESSURE,,HYPOTENSION,,HLT_0761,,HLGT_0412,,VASCULAR DISORDERS,,VASCULAR DISORDERS,,MILD,N,,POSSIBLE,RECOVERED/RESOLVED,N,N,N,N,N,N,N,TREATMENT,2013-09-10,2013-08-28,2013-09-10,69.0,56.0,69.0
CDISCPILOT01,AE,01-708-1372,1.0,E03,ATRIOVENTRICULAR BLOCK SECOND DEGREE,AV BLOCK SECOND DEGREE,,ATRIOVENTRICULAR BLOCK SECOND DEGREE,,HLT_0415,,HLGT_0086,,CARDIAC DISORDERS,,CARDIAC DISORDERS,,MODERATE,N,,NONE,NOT RECOVERED/NOT RESOLVED,N,N,N,N,N,N,N,SCREENING,2013-04-10,2013-04-10,,-2.0,-2.0,
CDISCPILOT01,AE,01-708-1406,2.0,E04,OEDEMA PERIPHERAL,SWELLING OF LEGS,,OEDEMA PERIPHERAL,,HLT_0661,,HLGT_0137,,GENERAL DISORDERS AND ADMINISTRATION SITE CONDITIONS,,GENERAL DISORDERS AND ADMINISTRATION SITE CONDITIONS,,MILD,N,,NONE,NOT RECOVERED/NOT RESOLVED,N,N,N,N,N,N,N,TREATMENT,2014-06-16,2014-06-16,,173.0,173.0,
CDISCPILOT01,AE,01-708-1428,3.0,E02,APPLICATION SITE ERYTHEMA,APPLICATION SITE REDNESS,,APPLICATION SITE ERYTHEMA,,HLT_0617,,HLGT_0152,,GENERAL DISORDERS AND ADMINISTRATION SITE CONDITIONS,,GENERAL DISORDERS AND ADMINISTRATION SITE CONDITIONS,,MODERATE,N,,PROBABLE,NOT RECOVERED/NOT RESOLVED,N,N,N,N,N,N,N,TREATMENT,2013-12-10,2013-12-10,2013-12-21,32.0,32.0,43.0
CDISCPILOT01,AE,01-708-1428,6.0,E02,APPLICATION SITE ERYTHEMA,APPLICATION SITE REDNESS,,APPLICATION SITE ERYTHEMA,,HLT_0617,,HLGT_0152,,GENERAL DISORDERS AND ADMINISTRATION SITE CONDITIONS,,GENERAL DISORDERS AND ADMINISTRATION SITE CONDITIONS,,SEVERE,N,,PROBABLE,RECOVERED/RESOLVED,N,N,N,N,N,N,N,TREATMENT,2013-12-26,2013-12-10,2013-12-21,48.0,32.0,43.0
CDISCPILOT01,AE,01-708-1428,2.0,E01,APPLICATION SITE PRURITUS,APPLICATION SITE ITCHING,,APPLICATION SITE PRURITUS,,HLT_0317,,HLGT_0338,,GENERAL DISORDERS AND ADMINISTRATION SITE CONDITIONS,,GENERAL DISORDERS AND ADMINISTRATION SITE CONDITIONS,,MODERATE,N,,PROBABLE,NOT RECOVERED/NOT RESOLVED,N,N,N,N,N,N,N,TREATMENT,2013-12-10,2013-12-10,2013-12-21,32.0,32.0,43.0
CDISCPILOT01,AE,01-708-1428,5.0,E01,APPLICATION SITE PRURITUS,APPLICATION SITE ITCHING,,APPLICATION SITE PRURITUS,,HLT_0317,,HLGT_0338,,GENERAL DISORDERS AND ADMINISTRATION SITE CONDITIONS,,GENERAL DISORDERS AND ADMINISTRATION SITE CONDITIONS,,SEVERE,N,,PROBABLE,RECOVERED/RESOLVED,N,N,N,N,N,N,N,TREATMENT,2013-12-26,2013-12-10,2013-12-21,48.0,32.0,43.0
CDISCPILOT01,AE,01-708-1428,4.0,E03,APPLICATION SITE WARMTH,APPLICATION SITE WARMTH,,APPLICATION SITE WARMTH,,HLT_0260,,HLGT_0301,,GENERAL DISORDERS AND ADMINISTRATION SITE CONDITIONS,,GENERAL DISORDERS AND ADMINISTRATION SITE CONDITIONS,,MODERATE,N,,PROBABLE,NOT RECOVERED/NOT RESOLVED,N,N,N,N,N,N,N,TREATMENT,2013-12-10,2013-12-10,2013-12-21,32.0,32.0,43.0
CDISCPILOT01,AE,01-708-1428,7.0,E03,APPLICATION SITE WARMTH,APPLICATION SITE WARMTH,,APPLICATION SITE WARMTH,,HLT_0260,,HLGT_0301,,GENERAL DISORDERS AND ADMINISTRATION SITE CONDITIONS,,GENERAL DISORDERS AND ADMINISTRATION SITE CONDITIONS,,SEVERE,N,,PROBABLE,RECOVERED/RESOLVED,N,N,N,N,N,N,N,TREATMENT,2013-12-26,2013-12-10,2013-12-21,48.0,32.0,43.0
CDISCPILOT01,AE,01-708-1428,1.0,E04,EPISTAXIS,NOSE BLEED,,EPISTAXIS,,HLT_0386,,HLGT_0577,,"RESPIRATORY, THORACIC AND MEDIASTINAL DISORDERS",,"RESPIRATORY, THORACIC AND MEDIASTINAL DISORDERS",,MILD,N,,REMOTE,RECOVERED/RESOLVED,N,N,N,N,N,N,N,TREATMENT,2013-11-23,2013-11-22,2013-11-22,15.0,14.0,14.0
CDISCPILOT01,AE,01-709-1007,2.0,E02,APPLICATION SITE DERMATITIS,APPLICATION SITE RASH,,APPLICATION SITE DERMATITIS,,HLT_0343,,HLGT_0241,,GENERAL DISORDERS AND ADMINISTRATION SITE CONDITIONS,,GENERAL DISORDERS AND ADMINISTRATION SITE CONDITIONS,,MILD,N,,PROBABLE,RECOVERED/RESOLVED,N,N,N,N,N,N,N,TREATMENT,2012-09-01,2012-08-16,2012-08-19,33.0,17.0,20.0
CDISCPILOT01,AE,01-709-1007,3.0,E03,APPLICATION SITE DERMATITIS,APPLICATION SITE RASH,,APPLICATION SITE DERMATITIS,,HLT_0343,,HLGT_0241,,GENERAL DISORDERS AND ADMINISTRATION SITE CONDITIONS,,GENERAL DISORDERS AND ADMINISTRATION SITE CONDITIONS,,SEVERE,N,,PROBABLE,NOT RECOVERED/NOT RESOLVED,N,N,N,N,N,N,N,TREATMENT,2012-09-01,2012-08-21,,33.0,22.0,
CDISCPILOT01,AE,01-709-1007,4.0,E04,DIARRHOEA,DIARRHEA,,DIARRHOEA,,HLT_0148,,HLGT_0588,,GASTROINTESTINAL DISORDERS,,GASTROINTESTINAL DISORDERS,,MILD,N,,POSSIBLE,RECOVERED/RESOLVED,N,N,N,N,N,N,N,TREATMENT,2012-09-01,2012-08-30,2012-08-30,33.0,31.0,31.0
CDISCPILOT01,AE,01-709-1020,3.0,E03,ABDOMINAL PAIN,ABDOMINAL PAIN,,ABDOMINAL PAIN,,HLT_0217,,HLGT_0419,,GASTROINTESTINAL DISORDERS,,GASTROINTESTINAL DISORDERS,,MILD,N,,POSSIBLE,RECOVERED/RESOLVED,N,N,N,N,N,N,N,TREATMENT,2013-01-12,2013-01-03,2013-01-11,43.0,34.0,42.0
CDISCPILOT01,AE,01-709-1020,1.0,E01,APPLICATION SITE DERMATITIS,APPLICATION SITE RASH,,APPLICATION SITE DERMATITIS,,HLT_0343,,HLGT_0241,,GENERAL DISORDERS AND ADMINISTRATION SITE CONDITIONS,,GENERAL DISORDERS AND ADMINISTRATION SITE CONDITIONS,,MILD,N,,PROBABLE,NOT RECOVERED/NOT RESOLVED,N,N,N,N,N,N,N,TREATMENT,2012-12-27,2012-12-27,,27.0,27.0,
CDISCPILOT01,AE,01-709-1020,4.0,E04,APPLICATION SITE PRURITUS,APPLICATION SITE ITCHING,,APPLICATION SITE PRURITUS,,HLT_0317,,HLGT_0338,,GENERAL DISORDERS AND ADMINISTRATION SITE CONDITIONS,,GENERAL DISORDERS AND ADMINISTRATION SITE CONDITIONS,,MILD,N,,PROBABLE,NOT RECOVERED/NOT RESOLVED,N,N,N,N,N,N,N,TREATMENT,2013-01-26,2013-01-15,,57.0,46.0,
CDISCPILOT01,AE,01-709-1020,2.0,E02,DIARRHOEA,DIARRHEA,,DIARRHOEA,,HLT_0148,,HLGT_0588,,GASTROINTESTINAL DISORDERS,,GASTROINTESTINAL DISORDERS,,MILD,N,,POSSIBLE,RECOVERED/RESOLVED,N,N,N,N,N,N,N,TREATMENT,2013-01-12,2013-01-03,2013-01-11,43.0,34.0,42.0
CDISCPILOT01,AE,01-709-1029,2.0,E08,APPLICATION SITE ERYTHEMA,APPLICATION SITE REDNESS,,APPLICATION SITE ERYTHEMA,,HLT_0617,,HLGT_0152,,GENERAL DISORDERS AND ADMINISTRATION SITE CONDITIONS,,GENERAL DISORDERS AND ADMINISTRATION SITE CONDITIONS,,MILD,N,,PROBABLE,NOT RECOVERED/NOT RESOLVED,N,N,N,N,N,N,N,TREATMENT,2013-01-21,2013-01-17,,28.0,24.0,
CDISCPILOT01,AE,01-709-1029,13.0,E11,COUGH,COUGH,,COUGH,,HLT_0701,,HLGT_0280,,"RESPIRATORY, THORACIC AND MEDIASTINAL DISORDERS",,"RESPIRATORY, THORACIC AND MEDIASTINAL DISORDERS",,MILD,N,,NONE,RECOVERED/RESOLVED,N,N,N,N,N,N,N,TREATMENT,2013-06-12,2013-05-12,2013-05-19,170.0,139.0,146.0
CDISCPILOT01,AE,01-709-1029,5.0,E07,MUSCLE SPASMS,CRAMP,,MUSCLE SPASMS,,HLT_0078,,HLGT_0750,,MUSCULOSKELETAL AND CONNECTIVE TISSUE DISORDERS,,MUSCULOSKELETAL AND CONNECTIVE TISSUE DISORDERS,,MILD,N,,REMOTE,RECOVERED/RESOLVED,N,N,N,N,N,N,N,TREATMENT,2013-03-20,2013-01-24,2013-02-27,86.0,31.0,65.0
CDISCPILOT01,AE,01-709-1029,4.0,E09,MYOCARDIAL INFARCTION,SEPTAL MYOCARDIAL INFARCTION,,MYOCARDIAL INFARCTION,,HLT_0649,,HLGT_0688,,CARDIAC DISORDERS,,CARDIAC DISORDERS,,MILD,N,,NONE,RECOVERED/RESOLVED,N,N,N,N,N,N,N,TREATMENT,2013-03-20,2013-01-09,2013-02-19,86.0,16.0,57.0
CDISCPILOT01,AE,01-709-1029,8.0,E10,MYOCARDIAL INFARCTION,SEPTAL MYOCARDIAL INFARCTION,,MYOCARDIAL INFARCTION,,HLT_0649,,HLGT_0688,,CARDIAC DISORDERS,,CARDIAC DISORDERS,,MILD,N,,NONE,RECOVERED/RESOLVED,N,N,N,N,N,N,N,TREATMENT,2013-05-15,2013-03-20,2013-04-16,142.0,86.0,113.0
CDISCPILOT01,AE,01-709-1029,12.0,E13,MYOCARDIAL INFARCTION,SEPTAL MYOCARDIAL INFARCTION,,MYOCARDIAL INFARCTION,,HLT_0649,,HLGT_0688,,CARDIAC DISORDERS,,CARDIAC DISORDERS,,MILD,N,,REMOTE,NOT RECOVERED/NOT RESOLVED,N,N,N,N,N,N,N,TREATMENT,2013-05-15,2013-05-15,,142.0,142.0,
CDISCPILOT01,AE,01-709-1029,14.0,E12,PHARYNGEAL ERYTHEMA,RED THROAT,,PHARYNGEAL ERYTHEMA,,HLT_0591,,HLGT_0398,,"RESPIRATORY, THORACIC AND MEDIASTINAL DISORDERS",,"RESPIRATORY, THORACIC AND MEDIASTINAL DISORDERS",,MILD,N,,NONE,RECOVERED/RESOLVED,N,N,N,N,N,N,N,TREATMENT,2013-06-12,2013-05-12,2013-05-19,170.0,139.0,146.0
CDISCPILOT01,AE,01-709-1029,16.0,E14,PRURITUS,ITCHING,,PRURITUS,,HLT_0778,,HLGT_0695,,SKIN AND SUBCUTANEOUS TISSUE DISORDERS,,SKIN AND SUBCUTANEOUS TISSUE DISORDERS,,MILD,N,,PROBABLE,NOT RECOVERED/NOT RESOLVED,N,N,N,N,N,N,N,TREATMENT,2013-06-26,2013-06-19,,184.0,177.0,
CDISCPILOT01,AE,01-709-1029,9.0,E15,SINUS BRADYCARDIA,SINUS BRADYCARDIA,,SINUS BRADYCARDIA,,HLT_0644,,HLGT_0500,,CARDIAC DISORDERS,,CARDIAC DISORDERS,,MILD,N,,REMOTE,RECOVERED/RESOLVED,N,N,N,N,N,N,N,TREATMENT,2013-05-15,2013-03-20,2013-04-16,142.0,86.0,113.0
CDISCPILOT01,AE,01-709-1029,15.0,E16,SINUS BRADYCARDIA,SINUS BRADYCARDIA,,SINUS BRADYCARDIA,,HLT_0644,,HLGT_0500,,CARDIAC DISORDERS,,CARDIAC DISORDERS,,MILD,N,,REMOTE,NOT RECOVERED/NOT RESOLVED,N,N,N,N,N,N,N,TREATMENT,2013-06-12,2013-06-12,,170.0,170.0,
CDISCPILOT01,AE,01-709-1081,2.0,E06,OEDEMA PERIPHERAL,PERIPHERAL SWELLING,,OEDEMA PERIPHERAL,,HLT_0661,,HLGT_0137,,GENERAL DISORDERS AND ADMINISTRATION SITE CONDITIONS,,GENERAL DISORDERS AND ADMINISTRATION SITE CONDITIONS,,MODERATE,N,,REMOTE,NOT RECOVERED/NOT RESOLVED,N,N,N,N,N,N,N,TREATMENT,2014-05-10,2014-05-01,,113.0,104.0,
CDISCPILOT01,AE,01-709-1081,1.0,E05,RASH,RASH,,RASH,,HLT_0762,,HLGT_0198,,SKIN AND SUBCUTANEOUS TISSUE DISORDERS,,SKIN AND SUBCUTANEOUS TISSUE DISORDERS,,MODERATE,N,,PROBABLE,NOT RECOVERED/NOT RESOLVED,N,N,N,N,N,N,N,TREATMENT,2014-04-21,2014-04-07,,94.0,80.0,
CDISCPILOT01,AE,01-709-1088,1.0,E02,APPLICATION SITE DERMATITIS,APPLICATION SITE RASH,,APPLICATION SITE DERMATITIS,,HLT_0343,,HLGT_0241,,GENERAL DISORDERS AND ADMINISTRATION SITE CONDITIONS,,GENERAL DISORDERS AND ADMINISTRATION SITE CONDITIONS,,MILD,N,,PROBABLE,NOT RECOVERED/NOT RESOLVED,N,N,N,N,N,N,N,TREATMENT,2014-05-08,2014-05-08,,27.0,27.0,
CDISCPILOT01,AE,01-709-1088,2.0,E04,RASH,RASH,,RASH,,HLT_0762,,HLGT_0198,,SKIN AND SUBCUTANEOUS TISSUE DISORDERS,,SKIN AND SUBCUTANEOUS TISSUE DISORDERS,,MILD,N,,NONE,NOT RECOVERED/NOT RESOLVED,N,N,N,N,N,N,N,TREATMENT,2014-08-02,2014-08-02,,113.0,113.0,
CDISCPILOT01,AE,01-709-1099,8.0,E06,ACROCHORDON EXCISION,SKIN TAG REMOVAL,,ACROCHORDON EXCISION,,HLT_0629,,HLGT_0103,,SURGICAL AND MEDICAL PROCEDURES,,SURGICAL AND MEDICAL PROCEDURES,,MILD,N,,NONE,RECOVERED/RESOLVED,N,N,N,N,N,N,N,TREATMENT,2014-04-11,2014-03-23,2014-03-23,169.0,150.0,150.0
CDISCPILOT01,AE,01-709-1099,2.0,E02,APPLICATION SITE DERMATITIS,APPLICATION SITE RASH,,APPLICATION SITE DERMATITIS,,HLT_0343,,HLGT_0241,,GENERAL DISORDERS AND ADMINISTRATION SITE CONDITIONS,,GENERAL DISORDERS AND ADMINISTRATION SITE CONDITIONS,,MILD,N,,PROBABLE,NOT RECOVERED/NOT RESOLVED,N,N,N,N,N,N,N,TREATMENT,2013-11-12,2013-11-12,,19.0,19.0,
CDISCPILOT01,AE,01-709-1099,6.0,E02,APPLICATION SITE DERMATITIS,APPLICATION SITE RASH,,APPLICATION SITE DERMATITIS,,HLT_0343,,HLGT_0241,,GENERAL DISORDERS AND ADMINISTRATION SITE CONDITIONS,,GENERAL DISORDERS AND ADMINISTRATION SITE CONDITIONS,,MODERATE,N,,PROBABLE,NOT RECOVERED/NOT RESOLVED,N,N,N,N,N,N,N,TREATMENT,2013-12-26,2013-11-12,,63.0,19.0,
CDISCPILOT01,AE,01-709-1099,4.0,E05,APPLICATION SITE PRURITUS,APPLICATION SITE ITCHING,,APPLICATION SITE PRURITUS,,HLT_0317,,HLGT_0338,,GENERAL DISORDERS AND ADMINISTRATION SITE CONDITIONS,,GENERAL DISORDERS AND ADMINISTRATION SITE CONDITIONS,,MILD,N,,PROBABLE,NOT RECOVERED/NOT RESOLVED,N,N,N,N,N,N,N,TREATMENT,2013-11-12,2013-11-12,,19.0,19.0,
CDISCPILOT01,AE,01-709-1099,7.0,E05,APPLICATION SITE PRURITUS,APPLICATION SITE ITCHING,,APPLICATION SITE PRURITUS,,HLT_0317,,HLGT_0338,,GENERAL DISORDERS AND ADMINISTRATION SITE CONDITIONS,,GENERAL DISORDERS AND ADMINISTRATION SITE CONDITIONS,,MODERATE,N,,PROBABLE,NOT RECOVERED/NOT RESOLVED,N,N,N,N,N,N,N,TREATMENT,2013-12-26,2013-11-12,,63.0,19.0,
CDISCPILOT01,AE,01-709-1099,3.0,E04,APPLICATION SITE VESICLES,APPLICATION SITE VESICLES,,APPLICATION SITE VESICLES,,HLT_0180,,HLGT_0576,,GENERAL DISORDERS AND ADMINISTRATION SITE CONDITIONS,,GENERAL DISORDERS AND ADMINISTRATION SITE CONDITIONS,,MILD,N,,PROBABLE,NOT RECOVERED/NOT RESOLVED,N,N,N,N,N,N,N,TREATMENT,2013-11-12,2013-11-12,,19.0,19.0,
CDISCPILOT01,AE,01-709-1099,5.0,E01,NASOPHARYNGITIS,COLD SYMPTOMS,,NASOPHARYNGITIS,,HLT_0036,,HLGT_0709,,INFECTIONS AND INFESTATIONS,,INFECTIONS AND INFESTATIONS,,MILD,N,,NONE,RECOVERED/RESOLVED,N,N,N,N,N,N,N,TREATMENT,2013-11-27,2013-11-06,2013-11-17,34.0,13.0,24.0
CDISCPILOT01,AE,01-709-1102,1.0,E01,APPLICATION SITE DERMATITIS,APPLICATION SITE RASH,,APPLICATION SITE DERMATITIS,,HLT_0343,,HLGT_0241,,GENERAL DISORDERS AND ADMINISTRATION SITE CONDITIONS,,GENERAL DISORDERS AND ADMINISTRATION SITE CONDITIONS,,MILD,N,,PROBABLE,NOT RECOVERED/NOT RESOLVED,N,N,N,N,N,N,N,TREATMENT,2013-02-11,2013-02-11,,28.0,28.0,
CDISCPILOT01,AE,01-709-1102,3.0,E01,APPLICATION SITE DERMATITIS,APPLICATION SITE RASH,,APPLICATION SITE DERMATITIS,,HLT_0343,,HLGT_0241,,GENERAL DISORDERS AND ADMINISTRATION SITE CONDITIONS,,GENERAL DISORDERS AND ADMINISTRATION SITE CONDITIONS,,MODERATE,N,,PROBABLE,NOT RECOVERED/NOT RESOLVED,N,N,N,N,N,N,N,TREATMENT,2013-03-12,2013-02-11,,57.0,28.0,
CDISCPILOT01,AE,01-709-1102,2.0,E02,APPLICATION SITE PRURITUS,APPLICATION SITE ITCHING,,APPLICATION SITE PRURITUS,,HLT_0317,,HLGT_0338,,GENERAL DISORDERS AND ADMINISTRATION SITE CONDITIONS,,GENERAL DISORDERS AND ADMINISTRATION SITE CONDITIONS,,MILD,N,,PROBABLE,NOT RECOVERED/NOT RESOLVED,N,N,N,N,N,N,N,TREATMENT,2013-02-11,2013-02-11,,28.0,28.0,
CDISCPILOT01,AE,01-709-1102,4.0,E02,APPLICATION SITE PRURITUS,APPLICATION SITE ITCHING,,APPLICATION SITE PRURITUS,,HLT_0317,,HLGT_0338,,GENERAL DISORDERS AND ADMINISTRATION SITE CONDITIONS,,GENERAL DISORDERS AND ADMINISTRATION SITE CONDITIONS,,MODERATE,N,,PROBABLE,NOT RECOVERED/NOT RESOLVED,N,N,N,N,N,N,N,TREATMENT,2013-03-12,2013-02-11,,57.0,28.0,
CDISCPILOT01,AE,01-709-1102,6.0,E04,APPLICATION SITE VESICLES,APPLICATION SITE BLISTER,,APPLICATION SITE VESICLES,,HLT_0180,,HLGT_0576,,GENERAL DISORDERS AND ADMINISTRATION SITE CONDITIONS,,GENERAL DISORDERS AND ADMINISTRATION SITE CONDITIONS,,MILD,N,,PROBABLE,RECOVERED/RESOLVED,N,N,N,N,N,N,N,TREATMENT,2013-03-31,2013-03-26,2013-03-27,76.0,71.0,72.0
CDISCPILOT01,AE,01-709-1102,5.0,E05,DIZZINESS,DIZZINESS,,DIZZINESS,,HLT_0619,,HLGT_0751,,NERVOUS SYSTEM DISORDERS,,NERVOUS SYSTEM DISORDERS,,MILD,N,,POSSIBLE,RECOVERED/RESOLVED,N,N,N,N,N,N,N,TREATMENT,2013-03-31,2013-03-20,2013-03-26,76.0,65.0,71.0
CDISCPILOT01,AE,01-709-1168,5.0,E03,PRURITUS,ITCHY,,PRURITUS,,HLT_0778,,HLGT_0695,,SKIN AND SUBCUTANEOUS TISSUE DISORDERS,,SKIN AND SUBCUTANEOUS TISSUE DISORDERS,,MODERATE,N,,PROBABLE,RECOVERED/RESOLVED,N,N,N,N,N,N,N,TREATMENT,2013-11-01,2013-09-06,2013-10-11,92.0,36.0,71.0
CDISCPILOT01,AE,01-709-1168,6.0,E04,RASH,RASH,,RASH,,HLT_0762,,HLGT_0198,,SKIN AND SUBCUTANEOUS TISSUE DISORDERS,,SKIN AND SUBCUTANEOUS TISSUE DISORDERS,,MODERATE,N,,PROBABLE,RECOVERED/RESOLVED,N,N,N,N,N,N,N,TREATMENT,2013-11-01,2013-09-06,2013-10-11,92.0,36.0,71.0
CDISCPILOT01,AE,01-709-1168,2.0,E02,SKIN IRRITATION,IRRITATION SKIN,,SKIN IRRITATION,,HLT_0583,,HLGT_0384,,SKIN AND SUBCUTANEOUS TISSUE DISORDERS,,SKIN AND SUBCUTANEOUS TISSUE DISORDERS,,MILD,N,,PROBABLE,RECOVERED/RESOLVED,N,N,N,N,N,N,N,TREATMENT,2013-09-13,2013-08-17,2013-09-06,43.0,16.0,36.0
CDISCPILOT01,AE,01-709-1217,3.0,E05,APPLICATION SITE DERMATITIS,APPLICATION SITE RASH,,APPLICATION SITE DERMATITIS,,HLT_0343,,HLGT_0241,,GENERAL DISORDERS AND ADMINISTRATION SITE CONDITIONS,,GENERAL DISORDERS AND ADMINISTRATION SITE CONDITIONS,,MILD,N,,PROBABLE,NOT RECOVERED/NOT RESOLVED,N,N,N,N,N,N,N,TREATMENT,2013-03-30,2013-03-26,2013-06-18,27.0,23.0,107.0
CDISCPILOT01,AE,01-709-1217,10.0,E05,APPLICATION SITE DERMATITIS,APPLICATION SITE RASH,,APPLICATION SITE DERMATITIS,,HLT_0343,,HLGT_0241,,GENERAL DISORDERS AND ADMINISTRATION SITE CONDITIONS,,GENERAL DISORDERS AND ADMINISTRATION SITE CONDITIONS,,MODERATE,N,,PROBABLE,RECOVERED/RESOLVED,N,N,N,N,N,N,N,TREATMENT,2013-06-25,2013-03-26,2013-06-18,114.0,23.0,107.0
CDISCPILOT01,AE,01-709-1217,2.0,E06,COUGH,COUGH,,COUGH,,HLT_0701,,HLGT_0280,,"RESPIRATORY, THORACIC AND MEDIASTINAL DISORDERS",,"RESPIRATORY, THORACIC AND MEDIASTINAL DISORDERS",,MILD,N,,NONE,NOT RECOVERED/NOT RESOLVED,N,N,N,N,N,N,N,TREATMENT,2013-03-30,2013-03-20,,27.0,17.0,
CDISCPILOT01,AE,01-709-1217,1.0,E09,DIZZINESS,DIZZINESS,,DIZZINESS,,HLT_0619,,HLGT_0751,,NERVOUS SYSTEM DISORDERS,,NERVOUS SYSTEM DISORDERS,,MODERATE,N,,POSSIBLE,RECOVERED/RESOLVED,N,N,N,N,N,N,N,TREATMENT,2013-03-19,2013-03-06,2013-03-06,16.0,3.0,3.0
CDISCPILOT01,AE,01-709-1217,4.0,E07,DIZZINESS,DIZZINESS,,DIZZINESS,,HLT_0619,,HLGT_0751,,NERVOUS SYSTEM DISORDERS,,NERVOUS SYSTEM DISORDERS,,MILD,N,,POSSIBLE,RECOVERED/RESOLVED,N,N,N,N,N,N,N,TREATMENT,2013-03-30,2013-03-27,2013-03-27,27.0,24.0,24.0
CDISCPILOT01,AE,01-709-1217,7.0,E08,DIZZINESS,DIZZINESS,,DIZZINESS,,HLT_0619,,HLGT_0751,,NERVOUS SYSTEM DISORDERS,,NERVOUS SYSTEM DISORDERS,,MILD,N,,POSSIBLE,RECOVERED/RESOLVED,N,N,N,N,N,N,N,TREATMENT,2013-04-13,2013-04-01,2013-04-11,41.0,29.0,39.0
CDISCPILOT01,AE,01-709-1217,5.0,E13,ELECTROCARDIOGRAM T WAVE INVERSION,T WAVE INVERTED,,ELECTROCARDIOGRAM T WAVE INVERSION,,HLT_0289,,HLGT_0130,,INVESTIGATIONS,,INVESTIGATIONS,,MILD,N,,NONE,NOT RECOVERED/NOT RESOLVED,N,N,N,N,N,N,N,TREATMENT,2013-03-30,2013-03-30,,27.0,27.0,
CDISCPILOT01,AE,01-709-1217,9.0,E14,HEADACHE,HEADACHE,,HEADACHE,,HLT_0064,,HLGT_0344,,NERVOUS SYSTEM DISORDERS,,NERVOUS SYSTEM DISORDERS,,MILD,N,,REMOTE,RECOVERED/RESOLVED,N,N,N,N,N,N,N,TREATMENT,2013-05-25,2013-05-17,2013-05-18,83.0,75.0,76.0
CDISCPILOT01,AE,01-709-1217,11.0,E10,PRURITUS,ITCHING,,PRURITUS,,HLT_0778,,HLGT_0695,,SKIN AND SUBCUTANEOUS TISSUE DISORDERS,,SKIN AND SUBCUTANEOUS TISSUE DISORDERS,,MODERATE,N,,PROBABLE,RECOVERED/RESOLVED,N,N,N,N,N,N,N,TREATMENT,2013-06-25,2013-05-27,2013-06-18,114.0,85.0,107.0
CDISCPILOT01,AE,01-709-1238,2.0,E07,APPLICATION SITE DERMATITIS,APPLICATION SITE RASH,,APPLICATION SITE DERMATITIS,,HLT_0343,,HLGT_0241,,GENERAL DISORDERS AND ADMINISTRATION SITE CONDITIONS,,GENERAL DISORDERS AND ADMINISTRATION SITE CONDITIONS,,MODERATE,N,,PROBABLE,NOT RECOVERED/NOT RESOLVED,N,N,N,N,N,N,N,TREATMENT,2013-06-19,2013-05-30,,36.0,16.0,
CDISCPILOT01,AE,01-709-1238,4.0,E09,APPLICATION SITE DISCHARGE,APPLICATION SITE DISCHARGE,,APPLICATION SITE DISCHARGE,,HLT_0200,,HLGT_0457,,GENERAL DISORDERS AND ADMINISTRATION SITE CONDITIONS,,GENERAL DISORDERS AND ADMINISTRATION SITE CONDITIONS,,MODERATE,N,,PROBABLE,NOT RECOVERED/NOT RESOLVED,N,N,N,N,N,N,N,TREATMENT,2013-06-19,2013-05-30,,36.0,16.0,
CDISCPILOT01,AE,01-709-1238,3.0,E08,APPLICATION SITE PRURITUS,APPLICATION SITE ITCHING,,APPLICATION SITE PRURITUS,,HLT_0317,,HLGT_0338,,GENERAL DISORDERS AND ADMINISTRATION SITE CONDITIONS,,GENERAL DISORDERS AND ADMINISTRATION SITE CONDITIONS,,MODERATE,N,,PROBABLE,NOT RECOVERED/NOT RESOLVED,N,N,N,N,N,N,N,TREATMENT,2013-06-19,2013-05-30,,36.0,16.0,
CDISCPILOT01,AE,01-709-1238,6.0,E04,COUGH,COUGH,,COUGH,,HLT_0701,,HLGT_0280,,"RESPIRATORY, THORACIC AND MEDIASTINAL DISORDERS",,"RESPIRATORY, THORACIC AND MEDIASTINAL DISORDERS",,MODERATE,N,,NONE,NOT RECOVERED/NOT RESOLVED,N,N,N,N,N,N,N,TREATMENT,2013-06-19,2013-06-09,,36.0,26.0,
CDISCPILOT01,AE,01-709-1238,1.0,E02,DIARRHOEA,DIARRHEA,,DIARRHOEA,,HLT_0148,,HLGT_0588,,GASTROINTESTINAL DISORDERS,,GASTROINTESTINAL DISORDERS,,MODERATE,N,,NONE,RECOVERED/RESOLVED,N,N,N,N,N,N,N,TREATMENT,2013-05-29,2013-05-28,2013-05-28,15.0,14.0,14.0
CDISCPILOT01,AE,01-709-1238,5.0,E05,HIP FRACTURE,HIP FRACTURE,,HIP FRACTURE,,HLT_0097,,HLGT_0131,,"INJURY, POISONING AND PROCEDURAL COMPLICATIONS",,"INJURY, POISONING AND PROCEDURAL COMPLICATIONS",,MODERATE,N,,NONE,RECOVERED/RESOLVED,N,N,N,N,N,N,N,TREATMENT,2013-06-19,2013-05-31,2013-05-31,36.0,17.0,17.0
CDISCPILOT01,AE,01-709-1238,8.0,E10,SKIN LESION EXCISION,SKIN LESION EXCISION,,SKIN LESION EXCISION,,HLT_0498,,HLGT_0450,,SURGICAL AND MEDICAL PROCEDURES,,SURGICAL AND MEDICAL PROCEDURES,,MILD,N,,NONE,RECOVERED/RESOLVED,N,N,N,N,N,N,N,TREATMENT,2013-07-02,2013-06-28,2013-06-28,49.0,45.0,45.0
CDISCPILOT01,AE,01-709-1238,7.0,E06,UPPER RESPIRATORY TRACT INFECTION,UPPER RESPIRATORY INFECTION,,UPPER RESPIRATORY TRACT INFECTION,,HLT_0520,,HLGT_0489,,INFECTIONS AND INFESTATIONS,,INFECTIONS AND INFESTATIONS,,MODERATE,N,,NONE,NOT RECOVERED/NOT RESOLVED,N,N,N,N,N,N,N,TREATMENT,2013-06-19,2013-06-09,,36.0,26.0,
CDISCPILOT01,AE,01-709-1259,5.0,E08,BENIGN PROSTATIC HYPERPLASIA,ENLARGED PROSTATE,,BENIGN PROSTATIC HYPERPLASIA,,HLT_0215,,HLGT_0568,,REPRODUCTIVE SYSTEM AND BREAST DISORDERS,,REPRODUCTIVE SYSTEM AND BREAST DISORDERS,,MILD,N,,NONE,NOT RECOVERED/NOT RESOLVED,N,N,N,N,Y,N,N,TREATMENT,2013-03-23,2013-03-17,2013-03-30,57.0,51.0,64.0
CDISCPILOT01,AE,01-709-1259,6.0,E08,BENIGN PROSTATIC HYPERPLASIA,ENLARGED PROSTATE,,BENIGN PROSTATIC HYPERPLASIA,,HLT_0215,,HLGT_0568,,REPRODUCTIVE SYSTEM AND BREAST DISORDERS,,REPRODUCTIVE SYSTEM AND BREAST DISORDERS,,SEVERE,N,,NONE,RECOVERED/RESOLVED,N,N,N,N,Y,N,N,TREATMENT,2013-04-20,2013-03-17,2013-03-30,85.0,51.0,64.0
CDISCPILOT01,AE,01-709-1259,3.0,E06,BLOOD URINE PRESENT,BLOOD IN URINE,,BLOOD URINE PRESENT,,HLT_0458,,HLGT_0289,,INVESTIGATIONS,,INVESTIGATIONS,,MILD,N,,NONE,NOT RECOVERED/NOT RESOLVED,N,N,N,N,N,N,N,TREATMENT,2013-03-23,2013-03-14,,57.0,48.0,
CDISCPILOT01,AE,01-709-1259,4.0,E07,CYSTOSCOPY,CYSTOSCOPY,,CYSTOSCOPY,,HLT_0436,,HLGT_0041,,INVESTIGATIONS,,INVESTIGATIONS,,MILD,N,,NONE,RECOVERED/RESOLVED,N,N,N,N,N,N,N,TREATMENT,2013-03-23,2013-03-17,2013-03-17,57.0,51.0,51.0
CDISCPILOT01,AE,01-709-1259,8.0,E12,DEHYDRATION,DEHYDRATION,,DEHYDRATION,,HLT_0533,,HLGT_0011,,METABOLISM AND NUTRITION DISORDERS,,METABOLISM AND NUTRITION DISORDERS,,MILD,N,,NONE,RECOVERED/RESOLVED,N,N,N,N,N,N,N,TREATMENT,2013-04-20,2013-04-13,2013-04-14,85.0,78.0,79.0
CDISCPILOT01,AE,01-709-1259,9.0,E13,HYPOTENSION,LOW BLOOD PRESSURE,,HYPOTENSION,,HLT_0761,,HLGT_0412,,VASCULAR DISORDERS,,VASCULAR DISORDERS,,MILD,N,,POSSIBLE,RECOVERED/RESOLVED,N,N,N,N,Y,N,N,TREATMENT,2013-04-20,2013-04-13,2013-04-14,85.0,78.0,79.0
CDISCPILOT01,AE,01-709-1259,2.0,E05,LOCALISED INFECTION,INFECTED FINGER,,LOCALISED INFECTION,,HLT_0435,,HLGT_0557,,INFECTIONS AND INFESTATIONS,,INFECTIONS AND INFESTATIONS,,MILD,N,,NONE,RECOVERED/RESOLVED,N,N,N,N,N,N,N,TREATMENT,2013-02-22,2013-02-05,2013-02-13,28.0,11.0,19.0
CDISCPILOT01,AE,01-709-1259,11.0,E14,ORTHOSTATIC HYPOTENSION,POSTURAL HYPOTENSION,,ORTHOSTATIC HYPOTENSION,,HLT_0194,,HLGT_0111,,VASCULAR DISORDERS,,VASCULAR DISORDERS,,MILD,N,,POSSIBLE,RECOVERED/RESOLVED,N,N,N,N,N,N,N,TREATMENT,2013-06-13,2013-04-20,2013-06-13,139.0,85.0,139.0
CDISCPILOT01,AE,01-709-1259,7.0,E11,PYREXIA,FEVER,,PYREXIA,,HLT_0310,,HLGT_0652,,GENERAL DISORDERS AND ADMINISTRATION SITE CONDITIONS,,GENERAL DISORDERS AND ADMINISTRATION SITE CONDITIONS,,MILD,N,,NONE,RECOVERED/RESOLVED,N,N,N,N,N,N,N,TREATMENT,2013-04-20,2013-04-13,2013-04-14,85.0,78.0,79.0
CDISCPILOT01,AE,01-709-1285,5.0,E04,APPLICATION SITE DERMATITIS,APPLICATION SITE RASH,,APPLICATION SITE DERMATITIS,,HLT_0343,,HLGT_0241,,GENERAL DISORDERS AND ADMINISTRATION SITE CONDITIONS,,GENERAL DISORDERS AND ADMINISTRATION SITE CONDITIONS,,MILD,N,,PROBABLE,RECOVERED/RESOLVED,N,N,N,N,N,N,N,TREATMENT,2013-05-31,2013-04-19,2013-05-31,69.0,27.0,69.0
CDISCPILOT01,AE,01-709-1285,6.0,E05,APPLICATION SITE PRURITUS,APPLICATION SITE ITCHING,,APPLICATION SITE PRURITUS,,HLT_0317,,HLGT_0338,,GENERAL DISORDERS AND ADMINISTRATION SITE CONDITIONS,,GENERAL DISORDERS AND ADMINISTRATION SITE CONDITIONS,,MILD,N,,PROBABLE,RECOVERED/RESOLVED,N,N,N,N,N,N,N,TREATMENT,2013-05-31,2013-04-19,2013-05-31,69.0,27.0,69.0
CDISCPILOT01,AE,01-709-1285,1.0,E03,HEMIANOPIA HOMONYMOUS,HOMONYMOUS HEMIANOPSIA,,HEMIANOPIA HOMONYMOUS,,HLT_0639,,HLGT_0547,,NERVOUS SYSTEM DISORDERS,,NERVOUS SYSTEM DISORDERS,,MILD,N,,NONE,NOT RECOVERED/NOT RESOLVED,N,N,Y,N,N,N,N,TREATMENT,2013-04-19,2013-04-14,,27.0,22.0,
CDISCPILOT01,AE,01-709-1285,4.0,E06,SINUS BRADYCARDIA,SINUS BRADYCARDIA,,SINUS BRADYCARDIA,,HLT_0644,,HLGT_0500,,CARDIAC DISORDERS,,CARDIAC DISORDERS,,MILD,N,,POSSIBLE,NOT RECOVERED/NOT RESOLVED,N,N,N,N,N,N,N,TREATMENT,2013-05-19,2013-05-19,,57.0,57.0,
CDISCPILOT01,AE,01-709-1301,1.0,E02,DIABETES MELLITUS,DIABETES,,DIABETES MELLITUS,,HLT_0447,,HLGT_0572,,METABOLISM AND NUTRITION DISORDERS,,METABOLISM AND NUTRITION DISORDERS,,MILD,N,,NONE,NOT RECOVERED/NOT RESOLVED,N,N,N,N,N,N,N,TREATMENT,2013-08-30,2013-08-30,,43.0,43.0,
CDISCPILOT01,AE,01-709-1306,9.0,E03,APPLICATION SITE IRRITATION,APPLICATION SITE BURNING,,APPLICATION SITE IRRITATION,,HLT_0061,,HLGT_0346,,GENERAL DISORDERS AND ADMINISTRATION SITE CONDITIONS,,GENERAL DISORDERS AND ADMINISTRATION SITE CONDITIONS,,MODERATE,N,,PROBABLE,RECOVERED/RESOLVED,N,N,N,N,N,N,N,TREATMENT,2014-06-25,2014-05-04,2014-06-23,143.0,91.0,141.0
CDISCPILOT01,AE,01-709-1306,2.0,E02,APPLICATION SITE PRURITUS,APPLICATION SITE ITCHING,,APPLICATION SITE PRURITUS,,HLT_0317,,HLGT_0338,,GENERAL DISORDERS AND ADMINISTRATION SITE CONDITIONS,,GENERAL DISORDERS AND ADMINISTRATION SITE CONDITIONS,,MILD,N,,PROBABLE,NOT RECOVERED/NOT RESOLVED,N,N,N,N,N,N,N,TREATMENT,2014-04-30,2014-04-20,2014-06-23,87.0,77.0,141.0
CDISCPILOT01,AE,01-709-1306,8.0,E02,APPLICATION SITE PRURITUS,APPLICATION SITE ITCHING,,APPLICATION SITE PRURITUS,,HLT_0317,,HLGT_0338,,GENERAL DISORDERS AND ADMINISTRATION SITE CONDITIONS,,GENERAL DISORDERS AND ADMINISTRATION SITE CONDITIONS,,MODERATE,N,,PROBABLE,RECOVERED/RESOLVED,N,N,N,N,N,N,N,TREATMENT,2014-06-25,2014-04-20,2014-06-23,143.0,77.0,141.0
CDISCPILOT01,AE,01-709-1306,6.0,E04,DRUG ERUPTION,DRUG RASH,,DRUG ERUPTION,,HLT_0430,,HLGT_0253,,SKIN AND SUBCUTANEOUS TISSUE DISORDERS,,SKIN AND SUBCUTANEOUS TISSUE DISORDERS,,MILD,N,,NONE,RECOVERED/RESOLVED,N,N,N,N,N,N,N,TREATMENT,2014-05-28,2014-05-20,2014-05-23,115.0,107.0,110.0
CDISCPILOT01,AE,01-709-1306,1.0,E01,RASH,RASH,,RASH,,HLT_0762,,HLGT_0198,,SKIN AND SUBCUTANEOUS TISSUE DISORDERS,,SKIN AND SUBCUTANEOUS TISSUE DISORDERS,,MILD,N,,PROBABLE,NOT RECOVERED/NOT RESOLVED,N,N,N,N,N,N,N,TREATMENT,2014-04-30,2014-04-20,2014-06-23,87.0,77.0,141.0
CDISCPILOT01,AE,01-709-1306,7.0,E01,RASH,RASH,,RASH,,HLT_0762,,HLGT_0198,,SKIN AND SUBCUTANEOUS TISSUE DISORDERS,,SKIN AND SUBCUTANEOUS TISSUE DISORDERS,,MODERATE,N,,PROBABLE,RECOVERED/RESOLVED,N,N,N,N,N,N,N,TREATMENT,2014-06-25,2014-04-20,2014-06-23,143.0,77.0,141.0
CDISCPILOT01,AE,01-709-1309,12.0,E10,ALLERGIC GRANULOMATOUS ANGIITIS,ALLERGIC GRANULOMATOSIS,,ALLERGIC GRANULOMATOUS ANGIITIS,,HLT_0114,,HLGT_0157,,"RESPIRATORY, THORACIC AND MEDIASTINAL DISORDERS",,"RESPIRATORY, THORACIC AND MEDIASTINAL DISORDERS",,MILD,N,,NONE,RECOVERED/RESOLVED,N,N,N,N,N,N,N,TREATMENT,2013-07-16,2013-07-04,2013-07-04,28.0,16.0,16.0
CDISCPILOT01,AE,01-709-1309,14.0,E12,APPLICATION SITE PRURITUS,APPLICATION SITE ITCHING,,APPLICATION SITE PRURITUS,,HLT_0317,,HLGT_0338,,GENERAL DISORDERS AND ADMINISTRATION SITE CONDITIONS,,GENERAL DISORDERS AND ADMINISTRATION SITE CONDITIONS,,MILD,N,,PROBABLE,NOT RECOVERED/NOT RESOLVED,N,N,N,N,N,N,N,TREATMENT,2013-07-31,2013-07-28,,43.0,40.0,
CDISCPILOT01,AE,01-709-1309,8.0,E09,BIOPSY,BIOPSY,,BIOPSY,,HLT_0685,,HLGT_0076,,INVESTIGATIONS,,INVESTIGATIONS,,MILD,N,,NONE,RECOVERED/RESOLVED,N,N,N,N,N,N,N,TREATMENT,2013-07-01,2013-06-26,2013-06-26,13.0,8.0,8.0
CDISCPILOT01,AE,01-709-1309,11.0,E08,DIZZINESS,DIZZINESS,,DIZZINESS,,HLT_0619,,HLGT_0751,,NERVOUS SYSTEM DISORDERS,,NERVOUS SYSTEM DISORDERS,,MILD,N,,NONE,RECOVERED/RESOLVED,N,N,N,N,N,N,N,TREATMENT,2013-07-16,2013-07-01,2013-07-01,28.0,13.0,13.0
CDISCPILOT01,AE,01-709-1309,15.0,E13,FEELING COLD,FEELING COLD,,FEELING COLD,,HLT_0340,,HLGT_0717,,GENERAL DISORDERS AND ADMINISTRATION SITE CONDITIONS,,GENERAL DISORDERS AND ADMINISTRATION SITE CONDITIONS,,MILD,N,,NONE,NOT RECOVERED/NOT RESOLVED,N,N,N,N,N,N,N,TREATMENT,2013-09-11,2013-09-06,,85.0,80.0,
CDISCPILOT01,AE,01-709-1309,5.0,E06,NASAL CONGESTION,NASAL CONGESTION,,NASAL CONGESTION,,HLT_0118,,HLGT_0549,,"RESPIRATORY, THORACIC AND MEDIASTINAL DISORDERS",,"RESPIRATORY, THORACIC AND MEDIASTINAL DISORDERS",,MILD,N,,REMOTE,RECOVERED/RESOLVED,N,N,N,N,N,N,N,TREATMENT,2013-07-01,2013-06-19,2013-06-20,13.0,1.0,2.0
CDISCPILOT01,AE,01-709-1309,6.0,E07,NIGHTMARE,NIGHTMARE,,NIGHTMARE,,HLT_0186,,HLGT_0049,,PSYCHIATRIC DISORDERS,,PSYCHIATRIC DISORDERS,,MILD,N,,REMOTE,RECOVERED/RESOLVED,N,N,N,N,N,N,N,TREATMENT,2013-07-01,2013-06-19,2013-06-20,13.0,1.0,2.0
CDISCPILOT01,AE,01-709-1309,10.0,E02,RASH MACULO-PAPULAR,MACULOPAPULAR RASH,,RASH MACULO-PAPULAR,,HLT_0500,,HLGT_0097,,SKIN AND SUBCUTANEOUS TISSUE DISORDERS,,SKIN AND SUBCUTANEOUS TISSUE DISORDERS,,MILD,N,,POSSIBLE,RECOVERED/RESOLVED,N,N,N,N,N,N,N,SCREENING,2013-07-16,2013-06-10,2013-07-01,28.0,-9.0,13.0
CDISCPILOT01,AE,01-709-1309,7.0,E04,RASH MACULO-PAPULAR,MACULOPAPULAR RASH,,RASH MACULO-PAPULAR,,HLT_0500,,HLGT_0097,,SKIN AND SUBCUTANEOUS TISSUE DISORDERS,,SKIN AND SUBCUTANEOUS TISSUE DISORDERS,,MILD,N,,PROBABLE,NOT RECOVERED/NOT RESOLVED,N,N,N,N,N,N,N,TREATMENT,2013-07-01,2013-06-20,,13.0,2.0,
CDISCPILOT01,AE,01-709-1309,13.0,E03,RASH PAPULAR,PAPULAR RASH,,RASH PAPULAR,,HLT_0549,,HLGT_0007,,SKIN AND SUBCUTANEOUS TISSUE DISORDERS,,SKIN AND SUBCUTANEOUS TISSUE DISORDERS,,MILD,N,,POSSIBLE,RECOVERED/RESOLVED,N,N,N,N,N,N,N,SCREENING,2013-07-18,2013-06-18,2013-07-16,30.0,-1.0,28.0
CDISCPILOT01,AE,01-709-1309,4.0,E05,VOMITING,VOMITING,,VOMITING,,HLT_0016,,HLGT_0350,,GASTROINTESTINAL DISORDERS,,GASTROINTESTINAL DISORDERS,,MILD,N,,POSSIBLE,RECOVERED/RESOLVED,N,N,N,N,N,N,N,TREATMENT,2013-07-01,2013-06-19,2013-06-19,13.0,1.0,1.0
CDISCPILOT01,AE,01-709-1312,1.0,E04,APPLICATION SITE DERMATITIS,APPLICATION SITE RASH,,APPLICATION SITE DERMATITIS,,HLT_0343,,HLGT_0241,,GENERAL DISORDERS AND ADMINISTRATION SITE CONDITIONS,,GENERAL DISORDERS AND ADMINISTRATION SITE CONDITIONS,,MILD,N,,PROBABLE,NOT RECOVERED/NOT RESOLVED,N,N,N,N,N,N,N,TREATMENT,2014-05-17,2014-05-17,,28.0,28.0,
CDISCPILOT01,AE,01-709-1312,2.0,E05,ELECTROCARDIOGRAM ST SEGMENT DEPRESSION,ST SEGMENT DEPRESSED,,ELECTROCARDIOGRAM ST SEGMENT DEPRESSION,,HLT_0610,,HLGT_0220,,INVESTIGATIONS,,INVESTIGATIONS,,MILD,N,,REMOTE,NOT RECOVERED/NOT RESOLVED,N,N,N,N,N,N,N,TREATMENT,2014-10-19,2014-10-19,,183.0,183.0,
CDISCPILOT01,AE,01-709-1326,5.0,E07,APPLICATION SITE BLEEDING,APPLICATION SITE BLEEDING,,APPLICATION SITE BLEEDING,,HLT_0718,,HLGT_0324,,GENERAL DISORDERS AND ADMINISTRATION SITE CONDITIONS,,GENERAL DISORDERS AND ADMINISTRATION SITE CONDITIONS,,MODERATE,N,,PROBABLE,RECOVERED/RESOLVED,N,N,N,N,N,N,N,TREATMENT,2013-06-26,2013-06-07,2013-06-17,83.0,64.0,74.0
CDISCPILOT01,AE,01-709-1326,1.0,E05,APPLICATION SITE DERMATITIS,APPLICATION SITE RASH,,APPLICATION SITE DERMATITIS,,HLT_0343,,HLGT_0241,,GENERAL DISORDERS AND ADMINISTRATION SITE CONDITIONS,,GENERAL DISORDERS AND ADMINISTRATION SITE CONDITIONS,,MILD,N,,PROBABLE,NOT RECOVERED/NOT RESOLVED,N,N,N,N,N,N,N,TREATMENT,2013-05-01,2013-05-01,,27.0,27.0,
CDISCPILOT01,AE,01-709-1326,2.0,E06,APPLICATION SITE PRURITUS,APPLICATION SITE ITCHING,,APPLICATION SITE PRURITUS,,HLT_0317,,HLGT_0338,,GENERAL DISORDERS AND ADMINISTRATION SITE CONDITIONS,,GENERAL DISORDERS AND ADMINISTRATION SITE CONDITIONS,,MILD,N,,PROBABLE,NOT RECOVERED/NOT RESOLVED,N,N,N,N,N,N,N,TREATMENT,2013-05-01,2013-05-01,,27.0,27.0,
CDISCPILOT01,AE,01-709-1326,6.0,E08,COUGH,COUGH,,COUGH,,HLT_0701,,HLGT_0280,,"RESPIRATORY, THORACIC AND MEDIASTINAL DISORDERS",,"RESPIRATORY, THORACIC AND MEDIASTINAL DISORDERS",,MILD,N,,NONE,NOT RECOVERED/NOT RESOLVED,N,N,N,N,N,N,N,TREATMENT,2013-07-26,2013-07-12,,113.0,99.0,
CDISCPILOT01,AE,01-709-1326,4.0,E04,SYNCOPE,SYNCOPE,,SYNCOPE,,HLT_0440,,HLGT_0310,,NERVOUS SYSTEM DISORDERS,,NERVOUS SYSTEM DISORDERS,,MILD,N,,POSSIBLE,RECOVERED/RESOLVED,N,N,N,N,Y,N,N,TREATMENT,2013-06-01,2013-05-21,2013-05-21,58.0,47.0,47.0
CDISCPILOT01,AE,01-709-1326,3.0,E03,VOMITING,VOMITING,,VOMITING,,HLT_0016,,HLGT_0350,,GASTROINTESTINAL DISORDERS,,GASTROINTESTINAL DISORDERS,,MILD,N,,POSSIBLE,RECOVERED/RESOLVED,N,N,N,N,N,N,N,TREATMENT,2013-06-01,2013-05-21,2013-05-21,58.0,47.0,47.0
CDISCPILOT01,AE,01-709-1329,1.0,E02,DIZZINESS,DIZZINESS,,DIZZINESS,,HLT_0619,,HLGT_0751,,NERVOUS SYSTEM DISORDERS,,NERVOUS SYSTEM DISORDERS,,MILD,N,,POSSIBLE,RECOVERED/RESOLVED,N,N,N,N,N,N,N,TREATMENT,2013-08-29,2013-08-25,2013-08-25,15.0,11.0,11.0
CDISCPILOT01,AE,01-709-1329,2.0,E03,PYREXIA,FEVER,,PYREXIA,,HLT_0310,,HLGT_0652,,GENERAL DISORDERS AND ADMINISTRATION SITE CONDITIONS,,GENERAL DISORDERS AND ADMINISTRATION SITE CONDITIONS,,MILD,N,,REMOTE,RECOVERED/RESOLVED,N,N,N,N,N,N,N,TREATMENT,2013-08-29,2013-08-25,2013-08-25,15.0,11.0,11.0
CDISCPILOT01,AE,01-709-1339,2.0,E05,BLOOD ALKALINE PHOSPHATASE INCREASED,ALK PHOS RAISED,,BLOOD ALKALINE PHOSPHATASE INCREASED,,HLT_0615,,HLGT_0298,,INVESTIGATIONS,,INVESTIGATIONS,,MODERATE,N,,NONE,NOT RECOVERED/NOT RESOLVED,N,N,N,N,N,N,N,TREATMENT,2013-05-12,2013-05-12,,141.0,141.0,
CDISCPILOT01,AE,01-709-1339,1.0,E04,HEADACHE,HEADACHE,,HEADACHE,,HLT_0064,,HLGT_0344,,NERVOUS SYSTEM DISORDERS,,NERVOUS SYSTEM DISORDERS,,MODERATE,N,,NONE,NOT RECOVERED/NOT RESOLVED,N,N,N,N,N,N,N,SCREENING,2013-02-19,2011-11,,59.0,,
CDISCPILOT01,AE,01-709-1424,1.0,E05,SYNCOPE,SYNCOPE,,SYNCOPE,,HLT_0440,,HLGT_0310,,NERVOUS SYSTEM DISORDERS,,NERVOUS SYSTEM DISORDERS,,MODERATE,Y,,POSSIBLE,RECOVERED/RESOLVED,N,N,N,N,N,Y,N,TREATMENT,2013-03-08,2013-03-07,2013-03-07,6.0,5.0,5.0
CDISCPILOT01,AE,01-710-1002,2.0,E01,TRANSIENT ISCHAEMIC ATTACK,TRANSIENT ISCHEMIC ATTACKS,,TRANSIENT ISCHAEMIC ATTACK,,HLT_0041,,HLGT_0433,,NERVOUS SYSTEM DISORDERS,,NERVOUS SYSTEM DISORDERS,,MILD,N,,REMOTE,RECOVERED/RESOLVED,N,N,N,N,Y,N,N,TREATMENT,2014-01-20,2014-01-16,2014-01-20,7.0,3.0,7.0
CDISCPILOT01,AE,01-710-1006,12.0,E11,CONTUSION,BRUISING OF FACE,,CONTUSION,,HLT_0713,,HLGT_0381,,"INJURY, POISONING AND PROCEDURAL COMPLICATIONS",,"INJURY, POISONING AND PROCEDURAL COMPLICATIONS",,MILD,N,,NONE,NOT RECOVERED/NOT RESOLVED,N,N,N,N,N,N,N,TREATMENT,2013-08-10,2013-08-08,,182.0,180.0,
CDISCPILOT01,AE,01-710-1006,1.0,E01,DIZZINESS,DIZZINESS,,DIZZINESS,,HLT_0619,,HLGT_0751,,NERVOUS SYSTEM DISORDERS,,NERVOUS SYSTEM DISORDERS,,MILD,N,,NONE,RECOVERED/RESOLVED,N,N,N,N,N,N,N,TREATMENT,2013-02-22,2013-02-18,2013-02-19,13.0,9.0,10.0
CDISCPILOT01,AE,01-710-1006,4.0,E05,DIZZINESS,FELT FAINT,,DIZZINESS,,HLT_0619,,HLGT_0751,,NERVOUS SYSTEM DISORDERS,,NERVOUS SYSTEM DISORDERS,,MILD,N,,NONE,RECOVERED/RESOLVED,N,N,N,N,N,N,N,TREATMENT,2013-05-04,2013-04-16,2013-04-16,84.0,66.0,66.0
CDISCPILOT01,AE,01-710-1006,11.0,E10,FACIAL BONES FRACTURE,FRACTURED NOSE,,FACIAL BONES FRACTURE,,HLT_0305,,HLGT_0585,,"INJURY, POISONING AND PROCEDURAL COMPLICATIONS",,"INJURY, POISONING AND PROCEDURAL COMPLICATIONS",,MODERATE,N,,NONE,NOT RECOVERED/NOT RESOLVED,N,N,N,N,N,N,N,TREATMENT,2013-08-10,2013-08-08,,182.0,180.0,
CDISCPILOT01,AE,01-710-1006,10.0,E09,FALL,FALL,,FALL,,HLT_0168,,HLGT_0446,,"INJURY, POISONING AND PROCEDURAL COMPLICATIONS",,"INJURY, POISONING AND PROCEDURAL COMPLICATIONS",,MILD,N,,NONE,RECOVERED/RESOLVED,N,N,N,N,N,N,N,TREATMENT,2013-08-10,2013-08-08,2013-08-08,182.0,180.0,180.0
CDISCPILOT01,AE,01-710-1006,6.0,E06,NEPHROLITHIASIS,KIDNEY STONE,,NEPHROLITHIASIS,,HLT_0439,,HLGT_0546,,RENAL AND URINARY DISORDERS,,RENAL AND URINARY DISORDERS,,MODERATE,N,,NONE,RECOVERED/RESOLVED,N,N,N,N,N,N,N,TREATMENT,2013-05-04,2013-04-17,2013-04-17,84.0,67.0,67.0
CDISCPILOT01,AE,01-710-1006,7.0,E07,PRURITUS,PRURITUS,,PRURITUS,,HLT_0778,,HLGT_0695,,SKIN AND SUBCUTANEOUS TISSUE DISORDERS,,SKIN AND SUBCUTANEOUS TISSUE DISORDERS,,MODERATE,N,,POSSIBLE,NOT RECOVERED/NOT RESOLVED,N,N,N,N,N,N,N,TREATMENT,2013-06-01,2013-05-18,,112.0,98.0,
CDISCPILOT01,AE,01-710-1006,2.0,E02,SALIVARY HYPERSECRETION,SALIVATION,,SALIVARY HYPERSECRETION,,HLT_0374,,HLGT_0488,,GASTROINTESTINAL DISORDERS,,GASTROINTESTINAL DISORDERS,,MILD,N,,POSSIBLE,NOT RECOVERED/NOT RESOLVED,N,N,N,N,N,N,N,TREATMENT,2013-03-08,2013-03-01,,27.0,20.0,
CDISCPILOT01,AE,01-710-1006,9.0,E08,SINUS BRADYCARDIA,SINUS BRADYCARDIA,,SINUS BRADYCARDIA,,HLT_0644,,HLGT_0500,,CARDIAC DISORDERS,,CARDIAC DISORDERS,,MODERATE,N,,REMOTE,RECOVERED/RESOLVED,N,N,N,N,N,N,N,TREATMENT,2013-07-27,2013-06-29,2013-07-04,168.0,140.0,145.0
CDISCPILOT01,AE,01-710-1006,3.0,E03,SKIN IRRITATION,SKIN IRRITATION,,SKIN IRRITATION,,HLT_0583,,HLGT_0384,,SKIN AND SUBCUTANEOUS TISSUE DISORDERS,,SKIN AND SUBCUTANEOUS TISSUE DISORDERS,,MILD,N,,POSSIBLE,NOT RECOVERED/NOT RESOLVED,N,N,N,N,N,N,N,TREATMENT,2013-03-08,2013-03-01,,27.0,20.0,
CDISCPILOT01,AE,01-710-1006,5.0,E04,URINARY TRACT INFECTION,URINARY INFECTION,,URINARY TRACT INFECTION,,HLT_0161,,HLGT_0093,,INFECTIONS AND INFESTATIONS,,INFECTIONS AND INFESTATIONS,,MILD,N,,NONE,RECOVERED/RESOLVED,N,N,N,N,N,N,N,TREATMENT,2013-05-04,2013-04-17,2013-04-19,84.0,67.0,69.0
CDISCPILOT01,AE,01-710-1021,1.0,E01,CHEST PAIN,CHEST PAIN,,CHEST PAIN,,HLT_0717,,HLGT_0195,,GENERAL DISORDERS AND ADMINISTRATION SITE CONDITIONS,,GENERAL DISORDERS AND ADMINISTRATION SITE CONDITIONS,,MILD,N,,REMOTE,RECOVERED/RESOLVED,N,N,N,N,N,N,N,TREATMENT,2013-10-11,2013-10-10,2013-10-10,15.0,14.0,14.0
CDISCPILOT01,AE,01-710-1021,3.0,E02,PRURITUS,ITCHING,,PRURITUS,,HLT_0778,,HLGT_0695,,SKIN AND SUBCUTANEOUS TISSUE DISORDERS,,SKIN AND SUBCUTANEOUS TISSUE DISORDERS,,MODERATE,N,,POSSIBLE,RECOVERED/RESOLVED,N,N,N,N,N,N,N,TREATMENT,2013-11-12,2013-10-21,2013-10-31,47.0,25.0,35.0
CDISCPILOT01,AE,01-710-1027,3.0,E05,HAEMOPTYSIS,COUGHING BLOOD,,HAEMOPTYSIS,,HLT_0192,,HLGT_0680,,"RESPIRATORY, THORACIC AND MEDIASTINAL DISORDERS",,"RESPIRATORY, THORACIC AND MEDIASTINAL DISORDERS",,MILD,N,,NONE,RECOVERED/RESOLVED,N,N,N,N,N,N,N,TREATMENT,2014-06-20,2014-05-09,2014-06-01,113.0,71.0,94.0
CDISCPILOT01,AE,01-710-1027,4.0,E06,RALES,RALES,,RALES,,HLT_0020,,HLGT_0410,,"RESPIRATORY, THORACIC AND MEDIASTINAL DISORDERS",,"RESPIRATORY, THORACIC AND MEDIASTINAL DISORDERS",,MILD,N,,NONE,RECOVERED/RESOLVED,N,N,N,N,N,N,N,TREATMENT,2014-07-17,2014-05-23,2014-06-20,140.0,85.0,113.0
CDISCPILOT01,AE,01-710-1045,12.0,E10,ERYTHEMA,ERYTHEMA,,ERYTHEMA,,HLT_0284,,HLGT_0192,,SKIN AND SUBCUTANEOUS TISSUE DISORDERS,,SKIN AND SUBCUTANEOUS TISSUE DISORDERS,,MILD,N,,POSSIBLE,RECOVERED/RESOLVED,N,N,N,N,N,N,N,TREATMENT,2013-09-08,2013-08-03,2013-08-17,98.0,62.0,76.0
CDISCPILOT01,AE,01-710-1045,5.0,E06,NASOPHARYNGITIS,COLD SYMPTOMS,,NASOPHARYNGITIS,,HLT_0036,,HLGT_0709,,INFECTIONS AND INFESTATIONS,,INFECTIONS AND INFESTATIONS,,MILD,N,,NONE,RECOVERED/RESOLVED,N,N,N,N,N,N,N,TREATMENT,2013-07-15,2013-07-02,2013-07-09,43.0,30.0,37.0
CDISCPILOT01,AE,01-710-1045,10.0,E08,PRURITUS,ITCHING,,PRURITUS,,HLT_0778,,HLGT_0695,,SKIN AND SUBCUTANEOUS TISSUE DISORDERS,,SKIN AND SUBCUTANEOUS TISSUE DISORDERS,,MILD,N,,POSSIBLE,RECOVERED/RESOLVED,N,N,N,N,N,N,N,TREATMENT,2013-09-08,2013-07-02,2013-08-17,98.0,30.0,76.0
CDISCPILOT01,AE,01-710-1045,11.0,E09,RASH,RASH,,RASH,,HLT_0762,,HLGT_0198,,SKIN AND SUBCUTANEOUS TISSUE DISORDERS,,SKIN AND SUBCUTANEOUS TISSUE DISORDERS,,MILD,N,,POSSIBLE,RECOVERED/RESOLVED,N,N,N,N,N,N,N,TREATMENT,2013-09-08,2013-07-22,2013-08-17,98.0,50.0,76.0
CDISCPILOT01,AE,01-710-1045,13.0,E11,SKIN EXFOLIATION,SKIN PEELING,,SKIN EXFOLIATION,,HLT_0236,,HLGT_0726,,SKIN AND SUBCUTANEOUS TISSUE DISORDERS,,SKIN AND SUBCUTANEOUS TISSUE DISORDERS,,MODERATE,N,,POSSIBLE,RECOVERED/RESOLVED,N,N,N,N,N,N,N,TREATMENT,2013-09-08,2013-08-13,2013-08-17,98.0,72.0,76.0
CDISCPILOT01,AE,01-710-1045,9.0,E07,SKIN IRRITATION,SKIN IRRITATION,,SKIN IRRITATION,,HLT_0583,,HLGT_0384,,SKIN AND SUBCUTANEOUS TISSUE DISORDERS,,SKIN AND SUBCUTANEOUS TISSUE DISORDERS,,MILD,N,,POSSIBLE,RECOVERED/RESOLVED,N,N,N,N,N,N,N,TREATMENT,2013-09-08,2013-07-02,2013-08-17,98.0,30.0,76.0
CDISCPILOT01,AE,01-710-1045,1.0,E05,VOMITING,VOMITING,,VOMITING,,HLT_0016,,HLGT_0350,,GASTROINTESTINAL DISORDERS,,GASTROINTESTINAL DISORDERS,,MILD,N,,REMOTE,RECOVERED/RESOLVED,N,N,N,N,N,N,N,TREATMENT,2013-07-01,2013-06-22,2013-06-22,29.0,20.0,20.0
CDISCPILOT01,AE,01-710-1053,3.0,E03,PRURITUS,ITCHING,,PRURITUS,,HLT_0778,,HLGT_0695,,SKIN AND SUBCUTANEOUS TISSUE DISORDERS,,SKIN AND SUBCUTANEOUS TISSUE DISORDERS,,MODERATE,N,,POSSIBLE,RECOVERED/RESOLVED,N,N,N,N,N,N,N,TREATMENT,2013-02-15,2013-01-28,2013-02-11,52.0,34.0,48.0
CDISCPILOT01,AE,01-710-1053,4.0,E04,RASH,RASH,,RASH,,HLT_0762,,HLGT_0198,,SKIN AND SUBCUTANEOUS TISSUE DISORDERS,,SKIN AND SUBCUTANEOUS TISSUE DISORDERS,,MODERATE,N,,POSSIBLE,RECOVERED/RESOLVED,N,N,N,N,N,N,N,TREATMENT,2013-02-15,2013-01-28,2013-02-11,52.0,34.0,48.0
CDISCPILOT01,AE,01-710-1060,4.0,E07,APPLICATION SITE INDURATION,APPLICATION SITE INDURATION,,APPLICATION SITE INDURATION,,HLT_0696,,HLGT_0715,,GENERAL DISORDERS AND ADMINISTRATION SITE CONDITIONS,,GENERAL DISORDERS AND ADMINISTRATION SITE CONDITIONS,,MILD,N,,POSSIBLE,RECOVERED/RESOLVED,N,N,N,N,N,N,N,TREATMENT,2013-02-01,2013-01-21,2013-01-21,32.0,21.0,21.0
CDISCPILOT01,AE,01-710-1060,5.0,E06,APPLICATION SITE PRURITUS,APPLICATION SITE ITCHING,,APPLICATION SITE PRURITUS,,HLT_0317,,HLGT_0338,,GENERAL DISORDERS AND ADMINISTRATION SITE CONDITIONS,,GENERAL DISORDERS AND ADMINISTRATION SITE CONDITIONS,,MILD,N,,POSSIBLE,RECOVERED/RESOLVED,N,N,N,N,N,N,N,TREATMENT,2013-02-01,2013-01-23,2013-01-23,32.0,23.0,23.0
CDISCPILOT01,AE,01-710-1060,6.0,E08,APPLICATION SITE PRURITUS,APPLICATION SITE ITCHING,,APPLICATION SITE PRURITUS,,HLT_0317,,HLGT_0338,,GENERAL DISORDERS AND ADMINISTRATION SITE CONDITIONS,,GENERAL DISORDERS AND ADMINISTRATION SITE CONDITIONS,,MILD,N,,POSSIBLE,RECOVERED/RESOLVED,N,N,N,N,N,N,N,TREATMENT,2013-02-01,2013-01-31,2013-01-31,32.0,31.0,31.0
CDISCPILOT01,AE,01-710-1060,7.0,E09,FALL,FALLING DOWN,,FALL,,HLT_0168,,HLGT_0446,,"INJURY, POISONING AND PROCEDURAL COMPLICATIONS",,"INJURY, POISONING AND PROCEDURAL COMPLICATIONS",,MILD,N,,NONE,RECOVERED/RESOLVED,N,N,N,N,N,N,N,TREATMENT,2013-02-12,2013-02-08,2013-02-08,43.0,39.0,39.0
CDISCPILOT01,AE,01-710-1060,8.0,E10,FALL,FALLING DOWN,,FALL,,HLT_0168,,HLGT_0446,,"INJURY, POISONING AND PROCEDURAL COMPLICATIONS",,"INJURY, POISONING AND PROCEDURAL COMPLICATIONS",,MILD,N,,NONE,RECOVERED/RESOLVED,N,N,N,N,N,N,N,TREATMENT,2013-02-12,2013-02-09,2013-02-09,43.0,40.0,40.0
CDISCPILOT01,AE,01-710-1060,3.0,E04,INSOMNIA,DIFFICULTY SLEEPING,,INSOMNIA,,HLT_0297,,HLGT_0469,,PSYCHIATRIC DISORDERS,,PSYCHIATRIC DISORDERS,,MILD,N,,NONE,RECOVERED/RESOLVED,N,N,N,N,N,N,N,TREATMENT,2013-02-01,2013-01-04,2013-01-15,32.0,4.0,15.0
CDISCPILOT01,AE,01-710-1060,1.0,E05,NASAL CONGESTION,NASAL CONGESTION,,NASAL CONGESTION,,HLT_0118,,HLGT_0549,,"RESPIRATORY, THORACIC AND MEDIASTINAL DISORDERS",,"RESPIRATORY, THORACIC AND MEDIASTINAL DISORDERS",,MILD,N,,NONE,RECOVERED/RESOLVED,N,N,N,N,N,N,N,TREATMENT,2013-01-15,2013-01-02,2013-01-02,15.0,2.0,2.0
CDISCPILOT01,AE,01-710-1070,3.0,E10,ERYTHEMA,ERYTHEMA,,ERYTHEMA,,HLT_0284,,HLGT_0192,,SKIN AND SUBCUTANEOUS TISSUE DISORDERS,,SKIN AND SUBCUTANEOUS TISSUE DISORDERS,,MILD,N,,PROBABLE,NOT RECOVERED/NOT RESOLVED,N,N,N,N,N,N,N,TREATMENT,2012-12-28,2012-12-12,,112.0,96.0,
CDISCPILOT01,AE,01-710-1070,6.0,E13,GASTROINTESTINAL HAEMORRHAGE,GI BLEED,,GASTROINTESTINAL HAEMORRHAGE,,HLT_0354,,HLGT_0020,,GASTROINTESTINAL DISORDERS,,GASTROINTESTINAL DISORDERS,,SEVERE,N,,NONE,RECOVERED/RESOLVED,N,N,N,N,Y,N,N,TREATMENT,2013-02-23,2013-02-05,2013-02-10,169.0,151.0,156.0
CDISCPILOT01,AE,01-710-1070,5.0,E12,HIP FRACTURE,HIP FRACTURE,,HIP FRACTURE,,HLT_0097,,HLGT_0131,,"INJURY, POISONING AND PROCEDURAL COMPLICATIONS",,"INJURY, POISONING AND PROCEDURAL COMPLICATIONS",,SEVERE,N,,NONE,RECOVERED/RESOLVED,N,N,N,N,Y,N,N,TREATMENT,2013-02-23,2013-01-22,2013-01-25,169.0,137.0,140.0
CDISCPILOT01,AE,01-710-1070,2.0,E09,PRURITUS,ITCHY,,PRURITUS,,HLT_0778,,HLGT_0695,,SKIN AND SUBCUTANEOUS TISSUE DISORDERS,,SKIN AND SUBCUTANEOUS TISSUE DISORDERS,,MILD,N,,PROBABLE,NOT RECOVERED/NOT RESOLVED,N,N,N,N,N,N,N,TREATMENT,2012-12-28,2012-12-12,,112.0,96.0,
CDISCPILOT01,AE,01-710-1070,4.0,E11,RASH,RASH,,RASH,,HLT_0762,,HLGT_0198,,SKIN AND SUBCUTANEOUS TISSUE DISORDERS,,SKIN AND SUBCUTANEOUS TISSUE DISORDERS,,MILD,N,,PROBABLE,NOT RECOVERED/NOT RESOLVED,N,N,N,N,N,N,N,TREATMENT,2012-12-28,2012-12-12,,112.0,96.0,
CDISCPILOT01,AE,01-710-1070,1.0,E08,SUPRAVENTRICULAR EXTRASYSTOLES,PREMATURE ATRIAL CONTRACTION,,SUPRAVENTRICULAR EXTRASYSTOLES,,HLT_0188,,HLGT_0279,,CARDIAC DISORDERS,,CARDIAC DISORDERS,,MILD,N,,POSSIBLE,NOT RECOVERED/NOT RESOLVED,N,N,N,N,N,N,N,TREATMENT,2012-10-06,2012-10-06,,29.0,29.0,
CDISCPILOT01,AE,01-710-1077,3.0,E06,AGITATION,AGITATION,,AGITATION,,HLT_0140,,HLGT_0170,,PSYCHIATRIC DISORDERS,,PSYCHIATRIC DISORDERS,,MILD,N,,REMOTE,NOT RECOVERED/NOT RESOLVED,N,N,N,N,N,N,N,TREATMENT,2014-01-12,2014-01-12,,57.0,57.0,
CDISCPILOT01,AE,01-710-1077,1.0,E04,APPLICATION SITE DERMATITIS,APPLICATION SITE RASH,,APPLICATION SITE DERMATITIS,,HLT_0343,,HLGT_0241,,GENERAL DISORDERS AND ADMINISTRATION SITE CONDITIONS,,GENERAL DISORDERS AND ADMINISTRATION SITE CONDITIONS,,MILD,N,,POSSIBLE,RECOVERED/RESOLVED,N,N,N,N,N,N,N,TREATMENT,2013-12-15,2013-12-12,2013-12-12,29.0,26.0,26.0
CDISCPILOT01,AE,01-710-1077,4.0,E01,ARTHRITIS,ARTHRITIS,,ARTHRITIS,,HLT_0019,,HLGT_0587,,MUSCULOSKELETAL AND CONNECTIVE TISSUE DISORDERS,,MUSCULOSKELETAL AND CONNECTIVE TISSUE DISORDERS,,SEVERE,N,,NONE,NOT RECOVERED/NOT RESOLVED,N,N,N,N,N,N,N,SCREENING,2014-04-06,1977,,141.0,,
CDISCPILOT01,AE,01-710-1077,5.0,E01,ARTHRITIS,ARTHRITIS,,ARTHRITIS,,HLT_0019,,HLGT_0587,,MUSCULOSKELETAL AND CONNECTIVE TISSUE DISORDERS,,MUSCULOSKELETAL AND CONNECTIVE TISSUE DISORDERS,,MODERATE,N,,NONE,NOT RECOVERED/NOT RESOLVED,N,N,N,N,N,N,N,SCREENING,2014-05-03,1977,,168.0,,
CDISCPILOT01,AE,01-710-1077,2.0,E05,SKIN IRRITATION,SKIN IRRITATION,,SKIN IRRITATION,,HLT_0583,,HLGT_0384,,SKIN AND SUBCUTANEOUS TISSUE DISORDERS,,SKIN AND SUBCUTANEOUS TISSUE DISORDERS,,MILD,N,,POSSIBLE,NOT RECOVERED/NOT RESOLVED,N,N,N,N,N,N,N,TREATMENT,2013-12-30,2013-12-27,,44.0,41.0,
CDISCPILOT01,AE,01-710-1083,1.0,E04,MYOCARDIAL INFARCTION,MYOCARDIAL INFARCT,,MYOCARDIAL INFARCTION,,HLT_0649,,HLGT_0688,,CARDIAC DISORDERS,,CARDIAC DISORDERS,,SEVERE,N,,POSSIBLE,FATAL,N,N,N,Y,Y,Y,N,TREATMENT,2013-08-03,2013-08-02,2013-08-02,13.0,12.0,12.0
CDISCPILOT01,AE,01-710-1137,2.0,E05,ERYTHEMA,REDNESS,,ERYTHEMA,,HLT_0284,,HLGT_0192,,SKIN AND SUBCUTANEOUS TISSUE DISORDERS,,SKIN AND SUBCUTANEOUS TISSUE DISORDERS,,MILD,N,,POSSIBLE,NOT RECOVERED/NOT RESOLVED,N,N,N,N,N,N,N,TREATMENT,2013-10-25,2013-10-13,,15.0,3.0,
CDISCPILOT01,AE,01-710-1137,4.0,E07,HEADACHE,HEADACHE,,HEADACHE,,HLT_0064,,HLGT_0344,,NERVOUS SYSTEM DISORDERS,,NERVOUS SYSTEM DISORDERS,,MILD,N,,REMOTE,NOT RECOVERED/NOT RESOLVED,N,N,N,N,N,N,N,TREATMENT,2013-11-13,2013-11-13,,34.0,34.0,
CDISCPILOT01,AE,01-710-1137,1.0,E04,PRURITUS,ITCHING,,PRURITUS,,HLT_0778,,HLGT_0695,,SKIN AND SUBCUTANEOUS TISSUE DISORDERS,,SKIN AND SUBCUTANEOUS TISSUE DISORDERS,,MILD,N,,POSSIBLE,NOT RECOVERED/NOT RESOLVED,N,N,N,N,N,N,N,TREATMENT,2013-10-25,2013-10-13,,15.0,3.0,
CDISCPILOT01,AE,01-710-1137,3.0,E06,VERTIGO,VERTIGO,,VERTIGO,,HLT_0255,,HLGT_0147,,EAR AND LABYRINTH DISORDERS,,EAR AND LABYRINTH DISORDERS,,MODERATE,N,,POSSIBLE,NOT RECOVERED/NOT RESOLVED,N,N,N,N,N,N,N,TREATMENT,2013-11-08,2013-11-04,,29.0,25.0,
CDISCPILOT01,AE,01-710-1142,1.0,E02,DIZZINESS,DIZZINESS,,DIZZINESS,,HLT_0619,,HLGT_0751,,NERVOUS SYSTEM DISORDERS,,NERVOUS SYSTEM DISORDERS,,MODERATE,N,,REMOTE,RECOVERED/RESOLVED,N,N,N,N,N,N,N,TREATMENT,2012-10-16,2012-10-04,2012-10-06,15.0,3.0,5.0
CDISCPILOT01,AE,01-710-1142,2.0,E03,HEADACHE,HEADACHE,,HEADACHE,,HLT_0064,,HLGT_0344,,NERVOUS SYSTEM DISORDERS,,NERVOUS SYSTEM DISORDERS,,MILD,N,,REMOTE,RECOVERED/RESOLVED,N,N,N,N,N,N,N,TREATMENT,2012-10-16,2012-10-04,2012-10-06,15.0,3.0,5.0
CDISCPILOT01,AE,01-710-1142,4.0,E05,MYOCARDIAL INFARCTION,MYOCARDIAL INFARCTION,,MYOCARDIAL INFARCTION,,HLT_0649,,HLGT_0688,,CARDIAC DISORDERS,,CARDIAC DISORDERS,,MODERATE,N,,POSSIBLE,RECOVERED/RESOLVED,N,N,N,N,Y,N,N,TREATMENT,2012-10-23,2012-10-19,2012-10-19,22.0,18.0,18.0
CDISCPILOT01,AE,01-710-1142,3.0,E07,NAUSEA,NAUSEA,,NAUSEA,,HLT_0742,,HLGT_0326,,GASTROINTESTINAL DISORDERS,,GASTROINTESTINAL DISORDERS,,MILD,N,,NONE,RECOVERED/RESOLVED,N,N,N,N,N,N,N,TREATMENT,2012-10-16,2012-10-14,2012-10-14,15.0,13.0,13.0
CDISCPILOT01,AE,01-710-1142,5.0,E06,SYNCOPE VASOVAGAL,SYNCOPE VASOVAGAL,,SYNCOPE VASOVAGAL,,HLT_0003,,HLGT_0687,,NERVOUS SYSTEM DISORDERS,,NERVOUS SYSTEM DISORDERS,,MODERATE,N,,POSSIBLE,RECOVERED/RESOLVED,N,N,N,N,N,N,N,TREATMENT,2012-10-23,2012-10-19,2012-10-19,22.0,18.0,18.0
CDISCPILOT01,AE,01-710-1154,1.0,E04,SKIN IRRITATION,SKIN IRRITATION,,SKIN IRRITATION,,HLT_0583,,HLGT_0384,,SKIN AND SUBCUTANEOUS TISSUE DISORDERS,,SKIN AND SUBCUTANEOUS TISSUE DISORDERS,,MODERATE,N,,POSSIBLE,NOT RECOVERED/NOT RESOLVED,N,N,N,N,N,N,N,TREATMENT,2014-04-25,2014-04-18,,28.0,21.0,
CDISCPILOT01,AE,01-710-1154,2.0,E04,SKIN IRRITATION,SKIN IRRITATION,,SKIN IRRITATION,,HLT_0583,,HLGT_0384,,SKIN AND SUBCUTANEOUS TISSUE DISORDERS,,SKIN AND SUBCUTANEOUS TISSUE DISORDERS,,SEVERE,N,,POSSIBLE,NOT RECOVERED/NOT RESOLVED,N,N,N,N,N,N,N,TREATMENT,2014-05-09,2014-04-18,,42.0,21.0,
CDISCPILOT01,AE,01-710-1166,4.0,E09,COMPLEX PARTIAL SEIZURES,COMPLEX PARTIAL SEIZURES,,COMPLEX PARTIAL SEIZURES,,HLT_0558,,HLGT_0656,,NERVOUS SYSTEM DISORDERS,,NERVOUS SYSTEM DISORDERS,,MODERATE,N,,POSSIBLE,RECOVERED/RESOLVED,N,N,N,N,Y,N,N,TREATMENT,2013-03-30,2013-03-19,2013-03-20,121.0,110.0,111.0
CDISCPILOT01,AE,01-710-1166,1.0,E05,FALL,FALL,,FALL,,HLT_0168,,HLGT_0446,,"INJURY, POISONING AND PROCEDURAL COMPLICATIONS",,"INJURY, POISONING AND PROCEDURAL COMPLICATIONS",,MODERATE,N,,POSSIBLE,RECOVERED/RESOLVED,N,N,N,N,N,N,N,TREATMENT,2013-03-30,2013-03-19,2013-03-19,121.0,110.0,110.0
CDISCPILOT01,AE,01-710-1166,2.0,E06,SKIN LACERATION,LACERATION OF HEAD,,SKIN LACERATION,,HLT_0075,,HLGT_0118,,"INJURY, POISONING AND PROCEDURAL COMPLICATIONS",,"INJURY, POISONING AND PROCEDURAL COMPLICATIONS",,MODERATE,N,,POSSIBLE,RECOVERED/RESOLVED,N,N,N,N,N,N,N,TREATMENT,2013-03-30,2013-03-19,2013-03-19,121.0,110.0,110.0
CDISCPILOT01,AE,01-710-1166,3.0,E07,SYNCOPE,SYNCOPE,,SYNCOPE,,HLT_0440,,HLGT_0310,,NERVOUS SYSTEM DISORDERS,,NERVOUS SYSTEM DISORDERS,,MODERATE,N,,POSSIBLE,RECOVERED/RESOLVED,N,N,N,N,N,N,N,TREATMENT,2013-03-30,2013-03-19,2013-03-19,121.0,110.0,110.0
CDISCPILOT01,AE,01-710-1166,5.0,E08,SYNCOPE,SYNCOPE,,SYNCOPE,,HLT_0440,,HLGT_0310,,NERVOUS SYSTEM DISORDERS,,NERVOUS SYSTEM DISORDERS,,MODERATE,N,,POSSIBLE,RECOVERED/RESOLVED,N,N,N,N,Y,N,N,TREATMENT,2013-03-30,2013-03-20,2013-03-20,121.0,111.0,111.0
CDISCPILOT01,AE,01-710-1183,2.0,E08,ATRIOVENTRICULAR BLOCK FIRST DEGREE,FIRST DEGREE ATRIOVENTRICULAR BLOCK,,ATRIOVENTRICULAR BLOCK FIRST DEGREE,,HLT_0419,,HLGT_0464,,CARDIAC DISORDERS,,CARDIAC DISORDERS,,MILD,N,,POSSIBLE,NOT RECOVERED/NOT RESOLVED,N,N,N,N,N,N,N,TREATMENT,2014-03-10,2014-03-10,,115.0,115.0,
CDISCPILOT01,AE,01-710-1183,1.0,E07,SINUS BRADYCARDIA,SINUS BRADYCARDIA,,SINUS BRADYCARDIA,,HLT_0644,,HLGT_0500,,CARDIAC DISORDERS,,CARDIAC DISORDERS,,MODERATE,N,,POSSIBLE,NOT RECOVERED/NOT RESOLVED,N,N,N,N,N,N,N,TREATMENT,2014-03-10,2014-03-10,,115.0,115.0,
CDISCPILOT01,AE,01-710-1187,1.0,E03,APPLICATION SITE IRRITATION,APPLICATION SITE IRRITATION,,APPLICATION SITE IRRITATION,,HLT_0061,,HLGT_0346,,GENERAL DISORDERS AND ADMINISTRATION SITE CONDITIONS,,GENERAL DISORDERS AND ADMINISTRATION SITE CONDITIONS,,MILD,N,,POSSIBLE,NOT RECOVERED/NOT RESOLVED,N,N,N,N,N,N,N,TREATMENT,2012-12-23,2012-12-23,,44.0,44.0,
CDISCPILOT01,AE,01-710-1235,3.0,E03,APPLICATION SITE PRURITUS,APPLICATION SITE ITCHING,,APPLICATION SITE PRURITUS,,HLT_0317,,HLGT_0338,,GENERAL DISORDERS AND ADMINISTRATION SITE CONDITIONS,,GENERAL DISORDERS AND ADMINISTRATION SITE CONDITIONS,,MILD,N,,POSSIBLE,NOT RECOVERED/NOT RESOLVED,N,N,N,N,N,N,N,TREATMENT,2013-02-12,2013-01-29,,140.0,126.0,
CDISCPILOT01,AE,01-710-1235,1.0,E01,COUGH,COUGH,,COUGH,,HLT_0701,,HLGT_0280,,"RESPIRATORY, THORACIC AND MEDIASTINAL DISORDERS",,"RESPIRATORY, THORACIC AND MEDIASTINAL DISORDERS",,MODERATE,N,,NONE,RECOVERED/RESOLVED,N,N,N,N,N,N,N,TREATMENT,2012-12-19,2012-11-22,2012-12-14,85.0,58.0,80.0
CDISCPILOT01,AE,01-710-1235,2.0,E02,SHOULDER PAIN,SHOULDER PAIN,,SHOULDER PAIN,,HLT_0527,,HLGT_0288,,MUSCULOSKELETAL AND CONNECTIVE TISSUE DISORDERS,,MUSCULOSKELETAL AND CONNECTIVE TISSUE DISORDERS,,MILD,N,,NONE,NOT RECOVERED/NOT RESOLVED,N,N,N,N,N,N,N,TREATMENT,2013-01-15,2013-01-13,,112.0,110.0,
CDISCPILOT01,AE,01-710-1249,3.0,E07,ERYTHEMA,ERYTHEMA,,ERYTHEMA,,HLT_0284,,HLGT_0192,,SKIN AND SUBCUTANEOUS TISSUE DISORDERS,,SKIN AND SUBCUTANEOUS TISSUE DISORDERS,,MILD,N,,POSSIBLE,NOT RECOVERED/NOT RESOLVED,N,N,N,N,N,N,N,TREATMENT,2014-03-22,2014-02-23,,85.0,58.0,
CDISCPILOT01,AE,01-710-1249,1.0,E05,PRURITUS,ITCHY,,PRURITUS,,HLT_0778,,HLGT_0695,,SKIN AND SUBCUTANEOUS TISSUE DISORDERS,,SKIN AND SUBCUTANEOUS TISSUE DISORDERS,,MILD,N,,POSSIBLE,RECOVERED/RESOLVED,N,N,N,N,N,N,N,TREATMENT,2014-02-22,2014-02-11,2014-02-11,57.0,46.0,46.0
CDISCPILOT01,AE,01-710-1249,2.0,E06,PRURITUS,ITCHY,,PRURITUS,,HLT_0778,,HLGT_0695,,SKIN AND SUBCUTANEOUS TISSUE DISORDERS,,SKIN AND SUBCUTANEOUS TISSUE DISORDERS,,MILD,N,,POSSIBLE,RECOVERED/RESOLVED,N,N,N,N,N,N,N,TREATMENT,2014-02-22,2014-02-18,2014-02-18,57.0,53.0,53.0
CDISCPILOT01,AE,01-710-1249,4.0,E08,PRURITUS,PRURITUS,,PRURITUS,,HLT_0778,,HLGT_0695,,SKIN AND SUBCUTANEOUS TISSUE DISORDERS,,SKIN AND SUBCUTANEOUS TISSUE DISORDERS,,MODERATE,N,,POSSIBLE,NOT RECOVERED/NOT RESOLVED,N,N,N,N,N,N,N,TREATMENT,2014-05-17,2014-04-24,,141.0,118.0,
CDISCPILOT01,AE,01-710-1264,5.0,E12,CHILLS,CHILLS,,CHILLS,,HLT_0586,,HLGT_0161,,GENERAL DISORDERS AND ADMINISTRATION SITE CONDITIONS,,GENERAL DISORDERS AND ADMINISTRATION SITE CONDITIONS,,MODERATE,N,,POSSIBLE,RECOVERED/RESOLVED,N,N,N,N,N,N,N,TREATMENT,2013-10-01,2013-09-29,2013-09-29,111.0,109.0,109.0
CDISCPILOT01,AE,01-710-1264,7.0,E09,CHILLS,CHILLS,,CHILLS,,HLT_0586,,HLGT_0161,,GENERAL DISORDERS AND ADMINISTRATION SITE CONDITIONS,,GENERAL DISORDERS AND ADMINISTRATION SITE CONDITIONS,,MODERATE,N,,POSSIBLE,RECOVERED/RESOLVED,N,N,N,N,N,N,N,TREATMENT,2013-10-12,2013-10-09,2013-10-09,122.0,119.0,119.0
CDISCPILOT01,AE,01-710-1264,9.0,E11,CHILLS,CHILLS,,CHILLS,,HLT_0586,,HLGT_0161,,GENERAL DISORDERS AND ADMINISTRATION SITE CONDITIONS,,GENERAL DISORDERS AND ADMINISTRATION SITE CONDITIONS,,MODERATE,N,,POSSIBLE,RECOVERED/RESOLVED,N,N,N,N,N,N,N,TREATMENT,2013-10-12,2013-10-11,2013-10-11,122.0,121.0,121.0
CDISCPILOT01,AE,01-710-1264,4.0,E07,COLD SWEAT,COLD SWEAT,,COLD SWEAT,,HLT_0124,,HLGT_0208,,SKIN AND SUBCUTANEOUS TISSUE DISORDERS,,SKIN AND SUBCUTANEOUS TISSUE DISORDERS,,MODERATE,N,,POSSIBLE,RECOVERED/RESOLVED,N,N,N,N,N,N,N,TREATMENT,2013-10-01,2013-09-29,2013-09-29,111.0,109.0,109.0
CDISCPILOT01,AE,01-710-1264,6.0,E08,COLD SWEAT,COLD SWEAT,,COLD SWEAT,,HLT_0124,,HLGT_0208,,SKIN AND SUBCUTANEOUS TISSUE DISORDERS,,SKIN AND SUBCUTANEOUS TISSUE DISORDERS,,MODERATE,N,,POSSIBLE,RECOVERED/RESOLVED,N,N,N,N,N,N,N,TREATMENT,2013-10-12,2013-10-09,2013-10-09,122.0,119.0,119.0
CDISCPILOT01,AE,01-710-1264,8.0,E10,COLD SWEAT,COLD SWEAT,,COLD SWEAT,,HLT_0124,,HLGT_0208,,SKIN AND SUBCUTANEOUS TISSUE DISORDERS,,SKIN AND SUBCUTANEOUS TISSUE DISORDERS,,MODERATE,N,,POSSIBLE,RECOVERED/RESOLVED,N,N,N,N,N,N,N,TREATMENT,2013-10-12,2013-10-11,2013-10-11,122.0,121.0,121.0
CDISCPILOT01,AE,01-710-1264,1.0,E13,DIARRHOEA,DIARRHEA,,DIARRHOEA,,HLT_0148,,HLGT_0588,,GASTROINTESTINAL DISORDERS,,GASTROINTESTINAL DISORDERS,,MILD,N,,POSSIBLE,RECOVERED/RESOLVED,N,N,N,N,N,N,N,TREATMENT,2013-07-11,2013-07-03,2013-07-05,29.0,21.0,23.0
CDISCPILOT01,AE,01-710-1264,2.0,E05,PRURITUS,PRURITUS,,PRURITUS,,HLT_0778,,HLGT_0695,,SKIN AND SUBCUTANEOUS TISSUE DISORDERS,,SKIN AND SUBCUTANEOUS TISSUE DISORDERS,,MILD,N,,POSSIBLE,NOT RECOVERED/NOT RESOLVED,N,N,N,N,N,N,N,TREATMENT,2013-09-03,2013-08-21,,83.0,70.0,
CDISCPILOT01,AE,01-710-1264,3.0,E06,RASH,RASH,,RASH,,HLT_0762,,HLGT_0198,,SKIN AND SUBCUTANEOUS TISSUE DISORDERS,,SKIN AND SUBCUTANEOUS TISSUE DISORDERS,,MILD,N,,POSSIBLE,NOT RECOVERED/NOT RESOLVED,N,N,N,N,N,N,N,TREATMENT,2013-09-03,2013-08-21,,83.0,70.0,
CDISCPILOT01,AE,01-710-1270,1.0,E04,ERYTHEMA,ERYTHEMA,,ERYTHEMA,,HLT_0284,,HLGT_0192,,SKIN AND SUBCUTANEOUS TISSUE DISORDERS,,SKIN AND SUBCUTANEOUS TISSUE DISORDERS,,MODERATE,N,,POSSIBLE,NOT RECOVERED/NOT RESOLVED,N,N,N,N,N,N,N,TREATMENT,2014-03-01,2014-02-23,,18.0,12.0,
CDISCPILOT01,AE,01-710-1270,2.0,E05,PRURITUS,ITCHING,,PRURITUS,,HLT_0778,,HLGT_0695,,SKIN AND SUBCUTANEOUS TISSUE DISORDERS,,SKIN AND SUBCUTANEOUS TISSUE DISORDERS,,MODERATE,N,,POSSIBLE,NOT RECOVERED/NOT RESOLVED,N,N,N,N,N,N,N,TREATMENT,2014-03-01,2014-02-23,,18.0,12.0,
CDISCPILOT01,AE,01-710-1271,3.0,E07,ATRIAL FIBRILLATION,PAROXYSMAL ATRIAL FIBRILLATION,,ATRIAL FIBRILLATION,,HLT_0365,,HLGT_0012,,CARDIAC DISORDERS,,CARDIAC DISORDERS,,MODERATE,N,,POSSIBLE,RECOVERED/RESOLVED,N,N,N,N,Y,Y,N,TREATMENT,2012-12-02,2012-11-21,2012-11-26,67.0,56.0,61.0
CDISCPILOT01,AE,01-710-1271,4.0,E06,CARDIAC FAILURE CONGESTIVE,CONGESTIVE HEART FAILURE,,CARDIAC FAILURE CONGESTIVE,,HLT_0511,,HLGT_0413,,CARDIAC DISORDERS,,CARDIAC DISORDERS,,MODERATE,N,,POSSIBLE,NOT RECOVERED/NOT RESOLVED,N,N,N,N,Y,Y,N,TREATMENT,2012-12-02,2012-11-22,,67.0,57.0,
CDISCPILOT01,AE,01-710-1271,1.0,E04,DYSPNOEA,SHORTNESS OF BREATH,,DYSPNOEA,,HLT_0296,,HLGT_0255,,"RESPIRATORY, THORACIC AND MEDIASTINAL DISORDERS",,"RESPIRATORY, THORACIC AND MEDIASTINAL DISORDERS",,MODERATE,N,,POSSIBLE,RECOVERED/RESOLVED,N,N,N,N,Y,N,N,TREATMENT,2012-12-02,2012-11-21,2012-11-21,67.0,56.0,56.0
CDISCPILOT01,AE,01-710-1271,5.0,E08,HYPONATRAEMIA,HYPONATREMIA,,HYPONATRAEMIA,,HLT_0688,,HLGT_0102,,METABOLISM AND NUTRITION DISORDERS,,METABOLISM AND NUTRITION DISORDERS,,MODERATE,N,,REMOTE,RECOVERED/RESOLVED,N,N,N,N,Y,N,N,TREATMENT,2012-12-02,2012-11-22,2012-11-26,67.0,57.0,61.0
CDISCPILOT01,AE,01-710-1271,2.0,E05,MYOCARDIAL INFARCTION,MYOCARDIAL INFARCT,,MYOCARDIAL INFARCTION,,HLT_0649,,HLGT_0688,,CARDIAC DISORDERS,,CARDIAC DISORDERS,,SEVERE,N,,POSSIBLE,RECOVERED/RESOLVED,N,N,N,N,Y,Y,N,TREATMENT,2012-12-02,2012-11-21,2012-11-21,67.0,56.0,56.0
CDISCPILOT01,AE,01-710-1278,7.0,E03,APPLICATION SITE ERYTHEMA,APPLICATION SITE ERYTHEMA,,APPLICATION SITE ERYTHEMA,,HLT_0617,,HLGT_0152,,GENERAL DISORDERS AND ADMINISTRATION SITE CONDITIONS,,GENERAL DISORDERS AND ADMINISTRATION SITE CONDITIONS,,MILD,N,,POSSIBLE,RECOVERED/RESOLVED,N,N,N,N,N,N,N,TREATMENT,2013-03-10,2013-02-24,2013-03-03,77.0,63.0,70.0
CDISCPILOT01,AE,01-710-1278,4.0,E04,BURNING SENSATION,BURNING SENSATION,,BURNING SENSATION,,HLT_0775,,HLGT_0456,,NERVOUS SYSTEM DISORDERS,,NERVOUS SYSTEM DISORDERS,,MODERATE,N,,POSSIBLE,RECOVERED/RESOLVED,N,N,N,N,N,N,N,TREATMENT,2013-03-03,2013-02-24,2013-02-26,70.0,63.0,65.0
CDISCPILOT01,AE,01-710-1278,6.0,E02,RASH,RASH,,RASH,,HLT_0762,,HLGT_0198,,SKIN AND SUBCUTANEOUS TISSUE DISORDERS,,SKIN AND SUBCUTANEOUS TISSUE DISORDERS,,MILD,N,,POSSIBLE,RECOVERED/RESOLVED,N,N,N,N,N,N,N,TREATMENT,2013-03-10,2013-02-07,2013-03-03,77.0,46.0,70.0
CDISCPILOT01,AE,01-710-1278,1.0,E01,SOMNOLENCE,DROWSINESS,,SOMNOLENCE,,HLT_0160,,HLGT_0254,,NERVOUS SYSTEM DISORDERS,,NERVOUS SYSTEM DISORDERS,,MILD,N,,REMOTE,RECOVERED/RESOLVED,N,N,N,N,N,N,N,TREATMENT,2013-01-24,2013-01-13,2013-01-19,32.0,21.0,27.0
CDISCPILOT01,AE,01-710-1278,5.0,E05,VOMITING,VOMITING,,VOMITING,,HLT_0016,,HLGT_0350,,GASTROINTESTINAL DISORDERS,,GASTROINTESTINAL DISORDERS,,MILD,N,,REMOTE,RECOVERED/RESOLVED,N,N,N,N,N,N,N,TREATMENT,2013-03-03,2013-03-02,2013-03-02,70.0,69.0,69.0
CDISCPILOT01,AE,01-710-1300,4.0,E05,APPLICATION SITE IRRITATION,APPLICATION SITE BURNING,,APPLICATION SITE IRRITATION,,HLT_0061,,HLGT_0346,,GENERAL DISORDERS AND ADMINISTRATION SITE CONDITIONS,,GENERAL DISORDERS AND ADMINISTRATION SITE CONDITIONS,,MILD,N,,POSSIBLE,NOT RECOVERED/NOT RESOLVED,N,N,N,N,N,N,N,TREATMENT,2013-02-19,2013-02-13,,67.0,61.0,
CDISCPILOT01,AE,01-710-1300,3.0,E04,BLISTER,BLISTERS,,BLISTER,,HLT_0752,,HLGT_0267,,SKIN AND SUBCUTANEOUS TISSUE DISORDERS,,SKIN AND SUBCUTANEOUS TISSUE DISORDERS,,MODERATE,N,,POSSIBLE,NOT RECOVERED/NOT RESOLVED,N,N,N,N,N,N,N,TREATMENT,2013-02-11,2013-02-10,,59.0,58.0,
CDISCPILOT01,AE,01-710-1300,2.0,E03,ERYTHEMA,ERYTHEMA,,ERYTHEMA,,HLT_0284,,HLGT_0192,,SKIN AND SUBCUTANEOUS TISSUE DISORDERS,,SKIN AND SUBCUTANEOUS TISSUE DISORDERS,,MODERATE,N,,POSSIBLE,NOT RECOVERED/NOT RESOLVED,N,N,N,N,N,N,N,TREATMENT,2013-02-11,2013-02-10,,59.0,58.0,
CDISCPILOT01,AE,01-710-1300,1.0,E02,PRURITUS,ITCHING,,PRURITUS,,HLT_0778,,HLGT_0695,,SKIN AND SUBCUTANEOUS TISSUE DISORDERS,,SKIN AND SUBCUTANEOUS TISSUE DISORDERS,,MODERATE,N,,POSSIBLE,NOT RECOVERED/NOT RESOLVED,N,N,N,N,N,N,N,TREATMENT,2013-02-11,2013-01-31,,59.0,48.0,
CDISCPILOT01,AE,01-710-1314,2.0,E01,NASOPHARYNGITIS,COMMON COLD,,NASOPHARYNGITIS,,HLT_0036,,HLGT_0709,,INFECTIONS AND INFESTATIONS,,INFECTIONS AND INFESTATIONS,,MILD,N,,NONE,RECOVERED/RESOLVED,N,N,N,N,N,N,N,TREATMENT,2013-05-25,2013-05-20,2013-05-24,32.0,27.0,31.0
CDISCPILOT01,AE,01-710-1315,7.0,E05,ERYTHEMA,ERYTHEMA,,ERYTHEMA,,HLT_0284,,HLGT_0192,,SKIN AND SUBCUTANEOUS TISSUE DISORDERS,,SKIN AND SUBCUTANEOUS TISSUE DISORDERS,,MODERATE,N,,POSSIBLE,RECOVERED/RESOLVED,N,N,N,N,N,N,N,TREATMENT,2013-07-16,2013-06-18,2013-07-07,140.0,112.0,131.0
CDISCPILOT01,AE,01-710-1315,1.0,E02,HEADACHE,HEADACHE,,HEADACHE,,HLT_0064,,HLGT_0344,,NERVOUS SYSTEM DISORDERS,,NERVOUS SYSTEM DISORDERS,,MILD,N,,REMOTE,RECOVERED/RESOLVED,N,N,N,N,N,N,N,SCREENING,2013-02-27,2013-02-26,2013-02-26,1.0,-1.0,-1.0
CDISCPILOT01,AE,01-710-1315,5.0,E03,PRURITUS,PRURITUS,,PRURITUS,,HLT_0778,,HLGT_0695,,SKIN AND SUBCUTANEOUS TISSUE DISORDERS,,SKIN AND SUBCUTANEOUS TISSUE DISORDERS,,MILD,N,,POSSIBLE,RECOVERED/RESOLVED,N,N,N,N,N,N,N,TREATMENT,2013-07-16,2013-05-14,2013-07-07,140.0,77.0,131.0
CDISCPILOT01,AE,01-710-1315,6.0,E04,RASH,RASH,,RASH,,HLT_0762,,HLGT_0198,,SKIN AND SUBCUTANEOUS TISSUE DISORDERS,,SKIN AND SUBCUTANEOUS TISSUE DISORDERS,,MODERATE,N,,POSSIBLE,RECOVERED/RESOLVED,N,N,N,N,N,N,N,TREATMENT,2013-07-16,2013-06-18,2013-07-07,140.0,112.0,131.0
CDISCPILOT01,AE,01-710-1354,1.0,E09,ERYTHEMA,ERYTHEMA,,ERYTHEMA,,HLT_0284,,HLGT_0192,,SKIN AND SUBCUTANEOUS TISSUE DISORDERS,,SKIN AND SUBCUTANEOUS TISSUE DISORDERS,,MILD,N,,POSSIBLE,NOT RECOVERED/NOT RESOLVED,N,N,N,N,N,N,N,TREATMENT,2013-01-06,2012-12-30,,57.0,50.0,
CDISCPILOT01,AE,01-710-1354,2.0,E10,PRURITUS,PRURITUS,,PRURITUS,,HLT_0778,,HLGT_0695,,SKIN AND SUBCUTANEOUS TISSUE DISORDERS,,SKIN AND SUBCUTANEOUS TISSUE DISORDERS,,MILD,N,,POSSIBLE,NOT RECOVERED/NOT RESOLVED,N,N,N,N,N,N,N,TREATMENT,2013-03-02,2013-02-14,,112.0,96.0,
CDISCPILOT01,AE,01-710-1358,3.0,E06,APPLICATION SITE DESQUAMATION,APPLICATION SITE DESQUAMATION,,APPLICATION SITE DESQUAMATION,,HLT_0351,,HLGT_0193,,GENERAL DISORDERS AND ADMINISTRATION SITE CONDITIONS,,GENERAL DISORDERS AND ADMINISTRATION SITE CONDITIONS,,MILD,N,,POSSIBLE,NOT RECOVERED/NOT RESOLVED,N,N,N,N,N,N,N,TREATMENT,2013-02-06,2013-01-24,,143.0,130.0,
CDISCPILOT01,AE,01-710-1358,2.0,E05,PRURITUS,ITCHY,,PRURITUS,,HLT_0778,,HLGT_0695,,SKIN AND SUBCUTANEOUS TISSUE DISORDERS,,SKIN AND SUBCUTANEOUS TISSUE DISORDERS,,MILD,N,,POSSIBLE,NOT RECOVERED/NOT RESOLVED,N,N,N,N,N,N,N,TREATMENT,2013-01-09,2012-12-22,,115.0,97.0,
CDISCPILOT01,AE,01-710-1358,1.0,E04,RASH,RASH,,RASH,,HLT_0762,,HLGT_0198,,SKIN AND SUBCUTANEOUS TISSUE DISORDERS,,SKIN AND SUBCUTANEOUS TISSUE DISORDERS,,MILD,N,,POSSIBLE,NOT RECOVERED/NOT RESOLVED,N,N,N,N,N,N,N,TREATMENT,2013-01-09,2012-12-22,,115.0,97.0,
CDISCPILOT01,AE,01-710-1368,2.0,E06,DELUSION,DELUSIONS,,DELUSION,,HLT_0198,,HLGT_0565,,PSYCHIATRIC DISORDERS,,PSYCHIATRIC DISORDERS,,MILD,N,,REMOTE,NOT RECOVERED/NOT RESOLVED,N,N,N,N,N,N,N,TREATMENT,2014-04-09,2014-03-26,,169.0,155.0,
CDISCPILOT01,AE,01-710-1368,4.0,E05,HIP FRACTURE,FRACTURED HIP,,HIP FRACTURE,,HLT_0097,,HLGT_0131,,"INJURY, POISONING AND PROCEDURAL COMPLICATIONS",,"INJURY, POISONING AND PROCEDURAL COMPLICATIONS",,SEVERE,N,,NONE,RECOVERED/RESOLVED,N,N,N,N,Y,N,N,TREATMENT,2014-04-24,2013-12-25,2014-04-24,184.0,64.0,184.0
CDISCPILOT01,AE,01-710-1368,3.0,E08,PSYCHOMOTOR HYPERACTIVITY,INCREASED ACTIVITY,,PSYCHOMOTOR HYPERACTIVITY,,HLT_0383,,HLGT_0277,,NERVOUS SYSTEM DISORDERS,,NERVOUS SYSTEM DISORDERS,,MILD,N,,REMOTE,NOT RECOVERED/NOT RESOLVED,N,N,N,N,N,N,N,TREATMENT,2014-04-09,2014-03-26,,169.0,155.0,
CDISCPILOT01,AE,01-710-1385,7.0,E12,ATRIAL FIBRILLATION,ATRIAL FIBRILLATION,,ATRIAL FIBRILLATION,,HLT_0365,,HLGT_0012,,CARDIAC DISORDERS,,CARDIAC DISORDERS,,MODERATE,N,,NONE,NOT RECOVERED/NOT RESOLVED,N,N,N,N,N,N,N,TREATMENT,2013-02-18,2013-02-18,,113.0,113.0,
CDISCPILOT01,AE,01-710-1385,3.0,E08,ATRIOVENTRICULAR BLOCK FIRST DEGREE,FIRST DEGREE ATRIOVENTRICULAR BLOCK,,ATRIOVENTRICULAR BLOCK FIRST DEGREE,,HLT_0419,,HLGT_0464,,CARDIAC DISORDERS,,CARDIAC DISORDERS,,MILD,N,,NONE,NOT RECOVERED/NOT RESOLVED,N,N,N,N,N,N,N,TREATMENT,2012-11-26,2012-11-26,,29.0,29.0,
CDISCPILOT01,AE,01-710-1385,6.0,E11,BLISTER,BLISTERS,,BLISTER,,HLT_0752,,HLGT_0267,,SKIN AND SUBCUTANEOUS TISSUE DISORDERS,,SKIN AND SUBCUTANEOUS TISSUE DISORDERS,,MILD,N,,POSSIBLE,NOT RECOVERED/NOT RESOLVED,N,N,N,N,N,N,N,TREATMENT,2013-01-21,2012-12-27,,85.0,60.0,
CDISCPILOT01,AE,01-710-1385,8.0,E13,ELECTROCARDIOGRAM T WAVE AMPLITUDE DECREASED,T WAVE FLATTENING OF,,ELECTROCARDIOGRAM T WAVE AMPLITUDE DECREASED,,HLT_0037,,HLGT_0030,,INVESTIGATIONS,,INVESTIGATIONS,,MILD,N,,REMOTE,NOT RECOVERED/NOT RESOLVED,N,N,N,N,N,N,N,TREATMENT,2013-02-18,2013-02-18,,113.0,113.0,
CDISCPILOT01,AE,01-710-1385,4.0,E09,PRURITUS,ITCHING,,PRURITUS,,HLT_0778,,HLGT_0695,,SKIN AND SUBCUTANEOUS TISSUE DISORDERS,,SKIN AND SUBCUTANEOUS TISSUE DISORDERS,,MILD,N,,POSSIBLE,NOT RECOVERED/NOT RESOLVED,N,N,N,N,N,N,N,TREATMENT,2012-12-25,2012-12-18,,58.0,51.0,
CDISCPILOT01,AE,01-710-1385,5.0,E10,RASH,RASH,,RASH,,HLT_0762,,HLGT_0198,,SKIN AND SUBCUTANEOUS TISSUE DISORDERS,,SKIN AND SUBCUTANEOUS TISSUE DISORDERS,,MILD,N,,POSSIBLE,NOT RECOVERED/NOT RESOLVED,N,N,N,N,N,N,N,TREATMENT,2013-01-21,2012-12-27,,85.0,60.0,
CDISCPILOT01,AE,01-710-1385,2.0,E06,SUPRAVENTRICULAR TACHYCARDIA,SUPRAVENTRICULAR TACHYCARDIA,,SUPRAVENTRICULAR TACHYCARDIA,,HLT_0692,,HLGT_0619,,CARDIAC DISORDERS,,CARDIAC DISORDERS,,MODERATE,N,,NONE,RECOVERED/RESOLVED,N,N,N,N,N,N,N,TREATMENT,2012-11-26,2012-11-12,2012-11-13,29.0,15.0,16.0
CDISCPILOT01,AE,01-710-1408,4.0,E07,ERYTHEMA,ERYTHEMA,,ERYTHEMA,,HLT_0284,,HLGT_0192,,SKIN AND SUBCUTANEOUS TISSUE DISORDERS,,SKIN AND SUBCUTANEOUS TISSUE DISORDERS,,MILD,N,,POSSIBLE,RECOVERED/RESOLVED,N,N,N,N,N,N,N,TREATMENT,2013-06-28,2013-02-24,2013-05-31,175.0,51.0,147.0
CDISCPILOT01,AE,01-710-1408,2.0,E06,NASOPHARYNGITIS,COLD SYMPTOMS,,NASOPHARYNGITIS,,HLT_0036,,HLGT_0709,,INFECTIONS AND INFESTATIONS,,INFECTIONS AND INFESTATIONS,,MILD,N,,NONE,RECOVERED/RESOLVED,N,N,N,N,N,N,N,TREATMENT,2013-02-20,2013-01-31,2013-02-09,47.0,27.0,36.0
CDISCPILOT01,AE,01-711-1012,1.0,E06,APPLICATION SITE DERMATITIS,APPLICATION SITE RASH,,APPLICATION SITE DERMATITIS,,HLT_0343,,HLGT_0241,,GENERAL DISORDERS AND ADMINISTRATION SITE CONDITIONS,,GENERAL DISORDERS AND ADMINISTRATION SITE CONDITIONS,,MILD,N,,PROBABLE,NOT RECOVERED/NOT RESOLVED,N,N,N,N,N,N,N,TREATMENT,2013-04-17,2013-04-16,,15.0,14.0,
CDISCPILOT01,AE,01-711-1012,3.0,E06,APPLICATION SITE DERMATITIS,APPLICATION SITE RASH,,APPLICATION SITE DERMATITIS,,HLT_0343,,HLGT_0241,,GENERAL DISORDERS AND ADMINISTRATION SITE CONDITIONS,,GENERAL DISORDERS AND ADMINISTRATION SITE CONDITIONS,,MODERATE,N,,PROBABLE,NOT RECOVERED/NOT RESOLVED,N,N,N,N,N,N,N,TREATMENT,2013-05-02,2013-04-16,,30.0,14.0,
CDISCPILOT01,AE,01-711-1012,2.0,E09,APPLICATION SITE PRURITUS,APPLICATION SITE ITCHING,,APPLICATION SITE PRURITUS,,HLT_0317,,HLGT_0338,,GENERAL DISORDERS AND ADMINISTRATION SITE CONDITIONS,,GENERAL DISORDERS AND ADMINISTRATION SITE CONDITIONS,,MILD,N,,PROBABLE,NOT RECOVERED/NOT RESOLVED,N,N,N,N,N,N,N,TREATMENT,2013-04-17,2013-04-16,2013-05-02,15.0,14.0,30.0
CDISCPILOT01,AE,01-711-1012,7.0,E09,APPLICATION SITE PRURITUS,APPLICATION SITE ITCHING,,APPLICATION SITE PRURITUS,,HLT_0317,,HLGT_0338,,GENERAL DISORDERS AND ADMINISTRATION SITE CONDITIONS,,GENERAL DISORDERS AND ADMINISTRATION SITE CONDITIONS,,MODERATE,N,,PROBABLE,RECOVERED/RESOLVED,N,N,N,N,N,N,N,TREATMENT,2013-07-17,2013-04-16,2013-05-02,106.0,14.0,30.0
CDISCPILOT01,AE,01-711-1012,6.0,E08,APPLICATION SITE URTICARIA,APPLICATION SITE URTICARIA,,APPLICATION SITE URTICARIA,,HLT_0196,,HLGT_0233,,GENERAL DISORDERS AND ADMINISTRATION SITE CONDITIONS,,GENERAL DISORDERS AND ADMINISTRATION SITE CONDITIONS,,MODERATE,N,,PROBABLE,RECOVERED/RESOLVED,N,N,N,N,N,N,N,TREATMENT,2013-05-02,2013-04-29,2013-05-01,30.0,27.0,29.0
CDISCPILOT01,AE,01-711-1012,5.0,E07,NASOPHARYNGITIS,COLD SYMPTOMS,,NASOPHARYNGITIS,,HLT_0036,,HLGT_0709,,INFECTIONS AND INFESTATIONS,,INFECTIONS AND INFESTATIONS,,MODERATE,N,,NONE,NOT RECOVERED/NOT RESOLVED,N,N,N,N,N,N,N,TREATMENT,2013-05-02,2013-04-27,,30.0,25.0,
CDISCPILOT01,AE,01-711-1036,4.0,E04,EAR INFECTION,EAR INFECTION,,EAR INFECTION,,HLT_0757,,HLGT_0760,,INFECTIONS AND INFESTATIONS,,INFECTIONS AND INFESTATIONS,,MILD,N,,NONE,RECOVERED/RESOLVED,N,N,N,N,N,N,N,TREATMENT,2012-08-29,2012-08-04,2012-08-12,32.0,7.0,15.0
CDISCPILOT01,AE,01-711-1036,3.0,E05,GLOSSITIS,GLOSSITIS,,GLOSSITIS,,HLT_0250,,HLGT_0427,,GASTROINTESTINAL DISORDERS,,GASTROINTESTINAL DISORDERS,,MILD,N,,NONE,NOT RECOVERED/NOT RESOLVED,N,N,N,N,N,N,N,TREATMENT,2012-08-12,2012-08-12,,15.0,15.0,
